ax,ay,az,gx,gy,gz
0.926025,0.236328,0.238770,5.870229,-1.885496,-11.893129
0.935791,0.228516,0.242187,7.946565,-0.740458,-10.977099
0.941406,0.230713,0.234619,11.564885,2.221374,-11.389313
0.929443,0.227295,0.247070,15.946565,1.946565,-11.725191
0.909912,0.277100,0.257080,18.679390,3.801527,-8.862596
0.889160,0.305664,0.241943,16.106871,0.923664,-6.816794
0.891357,0.324463,0.243408,10.732824,-3.091603,-6.328244
0.915527,0.296875,0.228516,3.778626,-7.419847,-7.839694
0.940186,0.260742,0.237549,1.450382,-7.106870,-9.877863
0.940186,0.277588,0.232178,2.328244,-2.908397,-10.343512
0.931396,0.333252,0.245361,4.465649,1.099237,-3.557252
0.886230,0.295654,0.210205,1.870229,-2.152672,-4.793893
0.907959,0.358154,0.221436,-4.015267,-1.809160,-5.671756
0.913818,0.349121,0.184814,-8.923664,-4.061069,-6.618320
0.926270,0.289795,0.217041,-9.824428,-2.595420,-5.267176
0.947510,0.306641,0.244385,-6.328244,3.190840,-3.748092
0.906982,0.329834,0.219238,-3.427481,8.145039,-1.114504
0.912109,0.317139,0.211182,-3.030534,5.312977,1.374046
0.938232,0.295410,0.235352,0.572519,10.541985,4.992366
0.937012,0.300293,0.239746,2.007634,16.259542,5.015267
0.901123,0.291016,0.248291,1.450382,14.534351,4.320611
0.895264,0.299072,0.250244,-0.114504,8.045801,1.389313
0.887451,0.274658,0.230469,-1.740458,1.374046,-0.511450
0.936523,0.260254,0.246338,-3.801527,2.557252,-0.389313
0.949707,0.286865,0.240234,-0.969466,9.541985,-0.557252
0.908447,0.298340,0.237061,-0.068702,11.343512,-0.175573
0.886963,0.306641,0.251709,0.923664,10.381680,0.885496
0.880127,0.304443,0.254395,1.809160,5.664122,0.229008
0.895264,0.302002,0.252441,-0.106870,3.137405,0.374046
0.926514,0.298096,0.271973,-2.320611,4.312977,-0.458015
0.909912,0.254150,0.251465,-3.916031,2.328244,-2.022901
0.933105,0.249756,0.259277,-3.106870,1.465649,-2.374046
0.946045,0.264893,0.244629,-2.473282,6.045802,-3.534351
0.932373,0.298340,0.253174,-1.740458,10.122137,-3.480916
0.895508,0.304443,0.243164,-2.351145,10.083969,-3.305344
0.892578,0.305908,0.252197,-1.832061,8.916031,-1.908397
0.898682,0.310547,0.270752,-1.786260,8.671756,-0.519084
0.894531,0.316162,0.253906,-2.732824,4.404580,-1.190840
0.900146,0.298584,0.267578,-3.603053,2.763359,-1.183206
0.906250,0.277100,0.247559,-3.587786,1.236641,-1.412214
0.919189,0.305664,0.279297,-2.732824,4.694656,-0.282443
0.904053,0.311523,0.244385,-5.236641,3.839695,-2.564885
0.899414,0.277100,0.261963,-6.152672,0.221374,-3.030534
0.936279,0.273926,0.263672,-6.106870,2.641221,-2.381679
0.937988,0.271484,0.267822,-3.503817,6.725191,-3.076336
0.917236,0.274414,0.275635,-2.793893,10.549619,-3.076336
0.889893,0.286133,0.271973,-1.519084,10.297709,-2.748092
0.883301,0.323730,0.284180,-1.610687,7.557252,-1.625954
0.871826,0.308838,0.257813,-3.847328,3.145038,-2.748092
0.889648,0.275391,0.284912,-2.564885,0.045802,-0.664122
0.918213,0.278564,0.286377,-0.106870,4.152672,1.007634
0.916016,0.282715,0.302002,1.282443,5.236641,0.106870
0.872559,0.286377,0.283447,4.839694,5.061069,-0.610687
0.863525,0.304443,0.278320,1.061069,-2.709924,0.114504
0.903320,0.302246,0.293457,0.396947,-5.900764,-0.175573
0.901611,0.264160,0.282959,0.137405,-8.603053,-1.755725
0.915283,0.281738,0.278564,0.992366,-7.793893,-1.641221
0.914795,0.277344,0.262451,0.709924,-8.328244,-3.282443
0.910400,0.276855,0.273682,1.320611,-7.213740,-2.847328
0.904053,0.294922,0.259277,1.549618,-5.870229,-2.763359
0.898437,0.293701,0.261719,0.824427,-7.358778,-2.977099
0.904541,0.291504,0.253662,0.839695,-8.793893,-2.328244
0.917480,0.301025,0.261230,1.900763,-7.839694,-1.259542
0.910156,0.318115,0.268799,3.427481,-4.809160,-1.480916
0.884033,0.318848,0.260742,3.305344,-5.503817,-0.114504
0.882080,0.309326,0.240723,1.862595,-10.580153,0.328244
0.909912,0.309326,0.260254,1.175573,-12.893129,0.198473
0.919922,0.289795,0.263916,1.557252,-12.083969,-0.480916
0.905029,0.286621,0.258301,2.664122,-11.251908,0.007634
0.910156,0.302979,0.251709,2.687023,-11.297709,-0.412214
0.890625,0.327881,0.264160,1.870229,-13.633588,-0.297710
0.877197,0.339111,0.237793,-2.671756,-19.633587,-3.679389
0.874756,0.283203,0.237061,-9.190840,-27.755726,-3.190840
0.932617,0.250977,0.221436,-8.519084,-29.213741,-3.458015
0.976562,0.271240,0.244873,-2.152672,-21.114504,-4.083970
0.941650,0.289063,0.217529,1.503817,-11.061069,-2.145038
0.895996,0.313477,0.232178,3.083969,-8.946565,-0.282443
0.871338,0.334717,0.229492,2.442748,-13.809160,0.290076
0.884033,0.344482,0.226807,-0.969466,-20.877863,-0.473282
0.912354,0.318848,0.227051,-4.190840,-25.022902,-1.175573
0.937012,0.298340,0.214844,-3.015267,-23.687023,-1.488550
0.936035,0.299561,0.220215,-1.221374,-18.923664,-0.770992
0.917480,0.288818,0.173828,-1.007634,-18.351145,0.068702
0.937988,0.299072,0.200684,-0.946565,-14.885496,1.549618
0.934570,0.295410,0.199463,2.679389,-12.198473,1.511450
0.917480,0.307373,0.206543,2.725191,-12.511451,1.206107
0.913086,0.323975,0.200928,-0.122137,-14.954199,1.267176
0.916504,0.328369,0.182129,-3.160305,-17.702290,1.282443
0.933838,0.307861,0.189941,-6.458015,-17.053434,2.007634
0.929443,0.308594,0.180908,-2.534351,-16.603054,3.366412
0.918457,0.330322,0.153320,-2.862595,-15.114504,2.786260
0.924561,0.307617,0.161377,-4.488550,-14.106871,5.320611
0.948242,0.311523,0.167236,-3.160305,-10.267176,6.190840
0.933838,0.276855,0.177490,-2.656489,-7.832061,7.587786
0.938232,0.283691,0.170898,0.694656,-7.328244,6.374046
0.915527,0.310791,0.172852,2.236641,-8.366412,4.526718
0.910645,0.314453,0.170898,-1.137405,-9.412213,5.793893
0.934570,0.301758,0.187744,-4.458015,-10.190840,9.259542
0.925293,0.328125,0.156250,-8.305344,-10.923664,8.465649
0.936523,0.304688,0.130859,-12.412213,-9.412213,10.389313
0.959229,0.257568,0.149902,-10.786260,-5.320611,14.328244
0.948975,0.276367,0.145508,-5.847328,-2.412214,15.847328
0.927734,0.288330,0.155029,-3.763359,-3.282443,15.732824
0.940186,0.302002,0.163086,-4.839694,-3.526718,17.572519
0.950439,0.306396,0.151123,-8.458015,-2.480916,18.122137
0.942383,0.292480,0.153809,-10.870229,-2.053435,18.305344
0.938721,0.276855,0.153809,-10.519084,-2.549618,19.503817
0.956787,0.264160,0.156982,-9.908397,-2.801527,21.343512
0.976074,0.265137,0.163574,-9.328244,0.251908,22.229008
0.984131,0.269775,0.158936,-8.877863,6.198473,22.793894
0.974121,0.273926,0.151855,-10.763359,9.137404,23.412214
0.967285,0.268799,0.159180,-12.458015,10.068703,23.534351
0.973633,0.267578,0.170898,-13.778625,11.557252,23.083969
1.001709,0.265137,0.166504,-17.893129,15.198473,22.732824
1.020752,0.269043,0.175049,-22.007633,22.114504,22.000000
1.021729,0.256836,0.173584,-26.862595,26.908398,20.076336
1.016602,0.241699,0.184570,-31.351145,30.442749,16.564886
1.009766,0.238281,0.191895,-36.297710,31.610687,12.732824
0.993652,0.231445,0.198242,-39.580154,33.106869,10.412213
0.992187,0.234863,0.224854,-39.183205,34.503819,10.618320
1.003662,0.234619,0.249512,-39.007633,36.137405,10.839695
1.017090,0.267578,0.259033,-38.564884,38.534351,13.030535
1.040283,0.312988,0.274658,-41.267174,38.496181,15.908397
1.107178,0.377930,0.324707,-48.412212,34.977100,19.557251
1.151855,0.347900,0.339355,-55.923664,39.519085,19.778625
1.143799,0.282959,0.372314,-57.106869,45.045803,20.763359
1.153809,0.259277,0.429687,-57.030533,48.160305,24.015266
1.161133,0.257568,0.385986,-44.801525,49.587788,26.877863
1.173340,0.284424,0.341309,-32.351147,54.183205,20.351145
1.194336,0.336426,0.247803,-12.488549,53.145039,11.236641
1.273926,0.420654,0.449707,0.526718,63.725189,-2.412214
1.191162,0.467285,0.254883,20.351145,54.465649,-15.419847
1.132324,0.471680,0.153564,65.305344,61.374046,-38.961834
1.091553,0.500244,0.071289,95.015266,48.106869,-58.885498
1.125977,0.614746,0.041748,108.236641,45.671757,-72.312981
1.099365,0.651123,0.036621,116.885498,44.328243,-81.870232
1.043945,0.646484,0.006104,118.091606,47.198475,-95.106873
1.006104,0.693359,0.056885,112.435112,42.145039,-106.458015
0.973877,0.742676,0.035645,111.328247,26.564886,-118.465652
0.985107,0.715088,0.036865,105.847328,7.267176,-132.709930
0.991455,0.720459,0.007813,96.931297,0.595420,-144.862595
1.020508,0.841797,-0.032959,84.977097,3.877863,-154.625961
0.998535,0.955078,0.025879,65.091606,8.343512,-165.106873
0.979248,1.084717,0.047852,44.526718,5.557252,-176.610687
0.942871,1.062012,0.079346,18.931297,-3.473282,-187.496185
0.931152,1.035400,0.097656,-4.290076,-10.145039,-199.068695
0.898926,0.947754,0.163086,-22.503817,-11.549619,-211.007629
0.815430,0.858398,0.189209,-33.801525,-14.114504,-210.877869
0.821777,0.881104,0.221436,-45.679390,-4.625954,-201.534348
0.763672,0.846924,0.246338,-55.305344,-3.045802,-204.137405
0.669922,0.790283,0.234375,-61.534351,-7.862596,-207.977097
0.604736,0.695801,0.202148,-67.977097,-15.778625,-208.160309
0.573242,0.628418,0.207764,-73.503815,-19.305344,-206.305344
0.558105,0.582520,0.257324,-78.770996,-20.488550,-200.961838
0.531494,0.566162,0.304688,-87.564888,-22.427481,-190.671753
0.522217,0.555176,0.419678,-97.259544,-21.648855,-177.167938
0.507568,0.537109,0.465332,-105.351143,-26.183207,-166.045807
0.498047,0.513184,0.477051,-108.099236,-29.480917,-159.221375
0.452393,0.493164,0.378418,-105.175575,-32.671757,-155.129776
0.415283,0.428711,0.298584,-105.419846,-35.328243,-150.908401
0.393311,0.309814,0.350830,-108.557251,-41.106869,-141.549622
0.451416,0.260986,0.532959,-108.740456,-47.770992,-128.511444
0.565186,0.270264,0.706543,-107.519081,-48.000000,-117.450378
0.647217,0.276855,0.802979,-108.145035,-37.396946,-106.480919
0.633789,0.296387,0.817139,-107.595421,-25.801527,-96.465652
0.563232,0.350342,0.781006,-102.473282,-21.312977,-89.412216
0.489014,0.382568,0.695068,-93.541985,-23.007633,-83.396950
0.478027,0.417969,0.506104,-86.198471,-24.442749,-77.167938
0.488770,0.350342,0.494629,-86.015266,-25.145039,-69.366409
0.515869,0.223877,0.535156,-87.900764,-26.061069,-60.152672
0.560303,0.126221,0.660645,-85.381676,-23.251909,-50.664124
0.593262,0.133301,0.685059,-74.404579,-17.801527,-43.862595
0.580811,0.158203,0.660156,-63.572517,-9.679389,-37.458015
0.518311,0.220215,0.680664,-53.206108,0.267176,-27.755726
0.438965,0.332275,0.664551,-41.488548,10.022901,-16.816793
0.383789,0.395264,0.575195,-44.877861,8.236641,4.793893
0.439941,0.340576,0.583252,-37.931297,12.007633,14.076336
0.445068,0.416748,0.629150,-42.709923,14.015267,7.793893
0.368896,0.407959,0.568359,-43.267174,-3.137405,-1.175573
0.385254,0.404053,0.598389,-43.763359,-5.038168,1.122137
0.359863,0.433105,0.555664,-40.893131,-6.511450,-1.465649
0.284180,0.424805,0.500977,-33.412212,-6.595420,5.832061
0.234131,0.533203,0.398926,-37.038166,-7.541985,16.458015
0.234619,0.639893,0.364990,-50.961834,-20.206106,17.175573
0.304688,0.616699,0.418457,-72.580154,-40.129772,17.778625
0.416748,0.566650,0.449219,-87.526718,-41.351147,20.129770
0.473877,0.574463,0.539062,-84.702293,-32.709923,15.267176
0.472412,0.533936,0.606934,-83.816795,-31.610687,9.862596
0.495605,0.505371,0.934814,-63.267174,-22.183207,6.511450
0.517822,0.516602,0.942139,-28.427481,-14.984733,0.244275
0.438965,0.606689,0.800293,-6.832061,1.908397,-0.664122
0.325439,0.672119,0.720215,-9.381680,5.946565,8.625955
0.306641,0.755127,0.766602,-22.526718,1.801527,15.335877
0.336670,0.777344,0.759521,-30.038168,-5.648855,13.167939
0.375732,0.812256,0.710205,-41.862595,-8.839695,6.580153
0.375244,0.814941,0.726562,-52.160305,-12.427481,-2.946565
0.362305,0.728760,0.810791,-57.992367,-16.374046,-10.137404
0.383057,0.643555,0.868896,-53.908398,-16.236641,-12.603053
0.403809,0.567139,0.842041,-42.702290,-13.763359,-13.381680
0.377441,0.486328,0.819824,-27.244274,-9.137404,-13.923664
0.328613,0.487305,0.759521,-8.931297,-6.465649,-11.213740
0.313965,0.567627,0.796631,6.862596,-8.404580,-4.854962
0.353027,0.669678,0.745117,10.015267,-11.435115,4.007634
0.362793,0.723633,0.759521,8.061069,-8.679389,9.030535
0.341309,0.726807,0.693115,1.129771,-12.450381,4.923664
0.307861,0.550781,0.683105,-4.015267,-18.290077,-1.030534
0.322510,0.415527,0.681152,7.648855,-18.236641,-0.755725
0.371582,0.372803,0.613525,22.702290,-16.404581,-3.183206
0.389648,0.492432,0.697266,34.183205,-4.183206,5.526718
0.386963,0.686035,0.789062,33.412212,0.862595,10.343512
0.371582,0.642578,0.838379,26.480917,0.160305,24.290077
0.395508,0.580811,0.812988,32.007633,2.801527,27.679390
0.417969,0.475342,0.825439,43.549618,2.206107,23.893129
0.450684,0.409424,0.799561,56.450382,9.526717,22.198473
0.478271,0.429199,0.794922,64.152672,18.167938,19.725191
0.481689,0.400391,0.807373,64.908394,27.343512,22.038168
0.494385,0.416748,0.710693,70.923668,34.282444,26.335878
0.487793,0.709473,0.597168,76.931297,45.740459,25.572519
0.395020,0.878418,0.562256,61.839695,49.320610,25.152672
0.347412,0.980713,0.485840,42.068703,38.389313,25.893129
0.412842,1.009277,0.548828,22.656488,25.969465,18.351145
0.468262,0.931641,0.585205,5.297710,21.068703,7.984733
0.407471,0.738281,0.508789,-7.244275,19.541985,-0.183206
0.337891,0.567627,0.568115,-4.183206,20.007633,-8.106871
0.307373,0.556885,0.556885,11.755725,11.580153,-18.312977
0.292480,0.481445,0.553955,20.770992,4.519084,-15.488549
0.297363,0.500488,0.577148,32.061069,6.893130,-7.358778
0.276611,0.548096,0.451416,39.145039,5.992366,2.000000
0.247070,0.564697,0.400391,38.595421,-2.229008,-1.190840
0.220947,0.391846,0.435059,54.793892,-12.450381,16.419847
0.314697,0.552002,0.340332,47.351147,-9.015267,24.809160
0.309570,0.705078,0.293945,29.297710,-20.167938,20.740458
0.321289,0.723145,0.266846,2.076336,-33.725189,21.687023
0.350098,0.660889,0.344727,-26.870230,-38.687023,24.709923
0.425537,0.637695,0.478516,-39.839695,-44.381680,22.007633
0.499268,0.701904,0.541504,-37.526718,-50.519085,9.290076
0.509521,0.736816,0.601807,-34.404579,-45.839695,0.770992
0.456299,0.650635,0.575928,-40.076336,-45.763359,5.335878
0.448975,0.633789,0.696289,-43.664124,-39.832062,15.267176
0.495605,0.666016,0.716553,-43.167938,-40.832062,18.618320
0.539551,0.654053,0.690918,-45.106869,-41.137405,13.778625
0.544189,0.621826,0.670410,-44.709923,-39.816795,10.931297
0.555664,0.599365,0.576660,-40.450382,-39.549618,9.770992
0.524170,0.539551,0.434570,-41.183205,-46.435116,3.778626
0.490479,0.462402,0.613770,-31.335878,-49.183205,6.618320
0.545654,0.519287,0.748291,-7.122138,-51.442749,13.427481
0.616211,0.629150,0.806152,16.335878,-47.511452,14.740458
0.625732,0.710937,0.803955,30.832062,-34.496181,20.000000
0.581299,0.752930,0.710937,30.465649,-22.870230,28.404581
0.521240,0.682861,0.623779,21.183207,-20.580153,32.854961
0.495605,0.554443,0.586670,20.450382,-27.587786,29.778625
0.516846,0.527588,0.591309,34.656490,-32.862595,21.740458
0.562744,0.607178,0.609375,44.358780,-33.755726,18.801527
0.591553,0.696533,0.581543,42.595421,-25.137405,22.656488
0.572021,0.713379,0.554932,31.328245,-13.977099,24.969465
0.496338,0.702637,0.575684,15.702291,-11.053435,23.648855
0.452393,0.652344,0.562012,3.389313,-21.862595,19.824427
0.490723,0.522949,0.599365,1.618321,-32.488548,15.969465
0.533203,0.375244,0.600586,14.480916,-35.221375,12.725191
0.529785,0.276123,0.559082,38.679390,-32.679390,10.496183
0.505859,0.322510,0.455078,64.793892,-40.564884,11.290076
0.524902,0.481689,0.421143,79.328247,-45.618320,14.114504
0.549561,0.624512,0.435303,81.755722,-47.206108,19.969465
0.579102,0.719238,0.435791,73.877861,-42.557251,28.534351
0.608887,0.827148,0.488281,64.931297,-32.152672,32.396946
0.629883,0.911377,0.554443,52.175571,-24.633587,30.748091
0.602539,0.891846,0.667236,34.809162,-12.282443,28.786259
0.533936,0.787598,0.560059,14.358779,-5.282443,26.022902
0.477295,0.668213,0.536133,-3.091603,-3.358779,19.725191
0.462158,0.619141,0.475586,-11.175572,-11.099236,9.328244
0.473877,0.619141,0.478760,-13.534351,-21.717558,2.870229
0.514893,0.674316,0.638916,-9.251908,-18.755726,7.129771
0.552490,0.727783,0.475830,-6.450382,-16.503817,13.893129
0.568604,0.762207,0.459473,-18.534351,-17.290077,20.458015
0.558105,0.739014,0.425537,-28.061069,-17.648855,23.702290
0.556885,0.691650,0.392334,-34.213741,-27.946566,21.854961
0.583740,0.585449,0.326416,-39.748093,-39.229008,18.648855
0.614746,0.504150,0.440186,-38.786259,-44.160305,16.381680
0.695068,0.670410,0.418945,-23.633587,-42.770992,11.000000
0.707275,0.653809,0.365967,-30.671755,-44.312977,10.328244
0.715576,0.640381,0.424805,-35.541985,-35.862595,17.129770
0.699707,0.603271,0.431396,-38.458015,-34.854961,18.290077
0.693604,0.566895,0.442383,-38.641220,-40.519085,16.297710
0.752930,0.572998,0.465576,-30.816793,-47.648853,12.541985
0.807129,0.577148,0.418701,-23.954199,-48.687023,9.618320
0.830322,0.572021,0.457031,-22.854961,-41.610687,10.465649
0.823242,0.592529,0.455566,-21.702290,-33.656490,13.519084
0.789062,0.541260,0.418945,-26.679390,-33.358780,14.343512
0.760742,0.491699,0.430664,-26.282442,-34.244274,14.396947
0.761230,0.440918,0.426270,-20.740458,-39.908398,14.229008
0.781006,0.407715,0.489990,-10.610687,-40.038166,14.656488
0.801025,0.447998,0.475830,4.931298,-36.305344,16.229008
0.809814,0.486328,0.403809,9.984733,-36.312977,18.862595
0.816895,0.533203,0.356201,7.732824,-36.572517,23.511450
0.833984,0.579834,0.307617,1.198473,-42.679390,27.977098
0.854004,0.548096,0.267334,-6.473282,-50.137405,32.534351
0.905029,0.437500,0.342773,-11.977099,-56.312977,39.061069
0.953857,0.439209,0.372803,-4.358778,-56.381680,41.511452
0.976074,0.520996,0.341797,7.473282,-55.328243,41.129772
0.989502,0.595215,0.375977,17.145039,-51.290077,42.465649
0.988037,0.646484,0.398926,27.801527,-48.541985,44.541985
0.967529,0.627686,0.396973,36.312977,-49.152672,45.099236
0.950439,0.615234,0.442139,44.282444,-43.267174,42.335876
0.899902,0.616699,0.450684,48.297710,-38.442749,37.877861
0.839355,0.540527,0.402344,44.793892,-38.145039,35.458015
0.786133,0.434570,0.427734,40.244274,-33.229008,33.328243
0.754150,0.433105,0.501953,42.770992,-25.091602,29.183207
0.703857,0.556885,0.379150,41.030533,-21.671755,22.564886
0.654297,0.590820,0.354736,27.610687,-23.625954,23.450382
0.622314,0.537109,0.393311,19.618320,-23.687023,28.862595
0.620361,0.470703,0.379883,21.061069,-25.259542,32.381680
0.629883,0.417725,0.347412,23.251909,-27.610687,34.183205
0.625488,0.383545,0.330078,31.114504,-24.977098,36.587788
0.621094,0.397949,0.300049,41.801525,-18.763359,41.061069
0.638184,0.466309,0.267090,46.122139,-13.335877,44.160305
0.658936,0.576904,0.251709,40.190838,-7.908397,45.282444
0.653320,0.682129,0.238037,26.618320,-6.061069,45.671757
0.654297,0.681885,0.174316,3.160305,-12.648855,47.641220
0.713379,0.578857,0.290771,-21.412214,-16.190840,49.167938
0.762207,0.535645,0.220215,-14.015267,-16.641222,44.587788
0.780762,0.410889,0.146729,-9.221375,-4.167939,33.778625
0.743408,0.256348,0.187744,-2.496183,2.748092,23.778625
0.685303,0.269775,0.150879,8.862596,8.412213,21.419847
0.657959,0.343750,0.039551,-2.549618,1.977099,25.824427
0.702881,0.401855,-0.050049,-18.687023,-13.770992,38.824429
0.810547,0.326660,0.058838,-48.328243,-24.786259,50.221375
0.814697,0.428467,0.059814,-13.450381,-12.343512,55.213741
0.860596,0.287109,-0.024170,14.015267,-14.709924,49.877861
0.852783,-0.018555,0.167969,27.404581,-17.633587,32.786259
0.779785,-0.106934,0.270508,45.862595,-9.671756,16.984734
0.675049,0.033203,0.202148,49.946564,5.664122,27.091602
0.679687,0.261719,-0.050049,28.160305,-4.259542,38.732826
0.753418,0.456787,-0.026855,11.526717,-18.610687,39.175571
0.827393,0.496826,0.072266,5.961832,-26.648855,35.694656
0.889893,0.457764,0.009033,3.709924,-35.267174,33.786259
0.902100,0.378662,0.006104,5.885496,-24.473282,32.389313
0.804443,0.281982,0.071533,6.290076,-10.656488,31.297710
0.674561,0.242187,0.079346,2.526718,-9.305344,31.839695
0.601318,0.259766,-0.043457,-8.480916,-24.717558,31.297710
0.658203,0.284912,-0.209229,-28.893129,-57.221375,28.198473
0.797852,0.217285,-0.117188,-41.671757,-79.641220,24.687023
0.934570,0.177979,-0.065430,-32.923664,-85.045799,23.877863
1.062256,0.296875,0.045166,-10.931297,-66.641220,20.870230
1.147461,0.542969,0.354492,19.076336,-36.335876,14.396947
1.080322,0.616699,0.318604,18.129770,-20.511450,11.961832
0.930664,0.462646,0.202148,-19.664122,-33.526718,16.022902
0.860107,0.335449,0.385010,-41.786259,-39.885498,18.290077
0.920166,0.416016,0.288086,-46.412212,-55.290077,10.801527
1.032227,0.462402,0.318604,-46.290077,-56.992367,-1.580153
1.078857,0.347412,0.345215,-40.770992,-49.251907,-4.427481
1.109619,0.254150,0.435303,-31.267176,-37.709923,-2.297710
1.116211,0.221436,0.452637,-22.244274,-25.259542,-0.709924
1.112793,0.246582,0.260742,-22.167938,-25.595419,-0.969466
1.112061,0.242187,0.287109,-23.259542,-15.351145,-3.885496
1.092285,0.225830,0.247314,-23.389313,-13.557252,-5.839694
1.102539,0.270752,0.161377,-21.763359,-13.206107,-8.908397
1.110840,0.291748,0.111816,-17.396946,-13.236641,-12.297709
1.106689,0.297607,0.072998,-13.786260,-9.213740,-13.931297
1.084961,0.299316,0.015869,-10.282443,-7.763359,-14.648855
1.081299,0.293701,-0.070557,-11.206107,-10.160305,-15.519084
1.073242,0.320068,-0.144775,-24.862595,-13.877863,-12.801527
1.096924,0.262451,0.056641,-13.938931,-14.870229,4.312977
1.119629,0.232178,-0.006836,-7.839694,-17.984734,-15.938931
1.086914,0.275879,-0.022461,6.824428,-18.419847,-25.419847
1.090332,0.319580,0.052734,3.641221,-10.595420,-17.000000
1.097900,0.283936,-0.013428,0.534351,-8.732824,-17.824427
1.041504,0.238281,0.031494,-1.923664,-7.503817,-23.183207
0.995361,0.215820,0.031738,-1.419847,-6.809160,-22.236641
0.978760,0.274658,0.023193,-2.541985,-4.992366,-19.480917
0.973633,0.304688,0.037109,2.564885,-2.832061,-20.938931
0.943848,0.346191,0.048340,4.938931,0.435115,-21.053434
0.910156,0.416992,0.009521,-0.183206,0.122137,-18.725191
0.922607,0.406982,-0.042969,-4.763359,-7.549618,-21.832062
0.933838,0.385742,-0.041016,-12.580153,-13.152672,-24.137405
0.946045,0.352539,-0.059570,-13.984733,-13.068703,-22.732824
0.938477,0.282959,-0.026611,-9.893129,-8.221375,-22.396946
0.897949,0.262695,0.036865,-1.305344,1.190840,-21.763359
0.843994,0.355225,-0.010498,-0.534351,1.145038,-18.358778
0.835693,0.345703,-0.025635,-3.167939,-6.732824,-19.885496
0.847168,0.237793,-0.012939,-6.106870,-15.969465,-21.603054
0.861084,0.217285,0.035645,-13.160305,-15.656488,-18.290077
0.892578,0.173584,0.069824,-6.297710,-8.923664,-20.557251
0.881104,0.195557,0.052490,-2.221374,-0.236641,-21.335878
0.864746,0.336182,-0.032227,-5.358778,2.763359,-16.770992
0.886475,0.433838,-0.022461,-3.427481,3.931298,-14.427481
0.883301,0.545410,0.007813,-14.152672,3.496183,-13.312977
0.893799,0.461670,0.059814,-4.335878,2.274809,-16.923664
0.913330,0.542969,0.031494,-14.015267,7.259542,-11.129771
0.922119,0.520264,0.062500,-4.900764,13.404580,-12.358779
0.898926,0.557373,0.036621,-11.091603,14.832061,-11.862596
0.881348,0.568115,0.026611,-8.694656,12.305344,-10.778625
0.901611,0.531738,0.063477,-4.900764,8.931297,-10.832061
0.933838,0.549561,0.065918,-8.870229,6.320611,-10.839695
0.978516,0.537109,0.036133,-12.801527,5.320611,-11.526717
1.017334,0.494385,0.039795,-17.809160,4.274809,-9.984733
1.054688,0.470703,0.084229,-17.221375,5.580153,-9.198473
1.086914,0.457764,0.120850,-12.297709,7.106870,-7.961832
1.108643,0.434082,0.139160,-8.961832,12.007633,-8.099236
1.097656,0.397949,0.124023,-7.931298,17.832062,-8.435115
1.059814,0.366943,0.108398,-3.877863,24.618320,-9.740458
0.998047,0.384033,0.073730,-0.206107,29.625954,-10.229008
0.954102,0.421387,0.080078,2.977099,33.129772,-9.374045
0.933105,0.435059,0.095703,7.435114,32.190838,-7.549618
0.951904,0.442383,0.103760,11.595420,30.320610,-6.572519
0.979736,0.452637,0.137695,15.412213,33.053436,-6.496183
0.988770,0.470215,0.154297,16.595419,37.320610,-7.396946
0.962646,0.485596,0.146973,16.076336,39.442749,-8.007633
0.941406,0.490234,0.128906,17.267176,35.832062,-9.366412
0.961914,0.487305,0.123291,20.931297,27.786259,-9.122137
1.023438,0.567627,0.138184,21.648855,21.534351,-6.549618
1.119385,0.656250,0.154541,24.557251,17.312977,-11.000000
1.183105,0.695312,0.152588,24.694656,16.190840,-13.908397
1.213135,0.660156,0.211914,23.122137,24.030535,-9.832061
1.187012,0.591309,0.270508,23.961832,35.664124,-9.328244
1.082031,0.499268,0.243408,23.664122,40.213741,-5.503817
1.015137,0.444824,0.211670,23.801527,34.488548,0.625954
1.005371,0.391846,0.191162,27.358778,27.229008,-0.961832
1.004639,0.372314,0.165283,33.190838,27.694656,-5.557252
0.981934,0.416992,0.137695,34.603054,35.152672,-7.496183
0.944824,0.432861,0.113525,32.259541,36.839695,-3.633588
0.917725,0.452148,0.136230,32.725189,35.473282,-2.358779
0.904297,0.478760,0.117432,31.549618,31.450382,-3.549618
0.907227,0.545898,0.135498,29.938931,29.526718,-5.786260
0.890869,0.572998,0.121826,25.091602,30.198473,-5.541985
0.859619,0.562256,0.101563,13.473283,31.442749,-3.946565
0.809326,0.543213,0.075195,2.038168,29.038168,-4.534351
0.758301,0.500488,0.048096,-7.633588,22.870230,-6.809160
0.722412,0.450684,0.008789,-13.320611,11.503817,-8.511451
0.733643,0.441162,0.043945,-11.900764,4.786260,-10.549619
0.752197,0.447754,0.089111,-7.587786,4.236641,-12.000000
0.773682,0.526123,0.087402,-6.190840,6.213740,-12.458015
0.766602,0.586426,0.091064,-17.633587,9.687023,-12.282443
0.742187,0.641113,0.129883,-33.877861,12.778625,-12.839695
0.707764,0.645996,0.092285,-55.312977,3.389313,-14.732824
0.667725,0.533203,0.101318,-73.473282,-8.702291,-16.496183
0.653564,0.349609,0.167480,-78.633591,-15.816793,-16.923664
0.671387,0.245605,0.202148,-65.259544,-18.938931,-16.870230
0.720215,0.232666,0.226074,-44.061069,-13.526717,-17.419847
0.731934,0.257813,0.210937,-26.977098,-2.809160,-15.488549
0.710937,0.296875,0.237305,-18.099237,8.931297,-11.534351
0.670166,0.335449,0.267578,-16.351145,12.526717,-9.587787
0.654297,0.393066,0.229736,-20.633587,6.312977,-11.465649
0.650391,0.398193,0.203125,-28.145039,-2.687023,-13.893129
0.656006,0.332520,0.230957,-32.671757,-6.152672,-14.030535
0.667480,0.258789,0.222900,-30.732824,-7.374046,-11.427481
0.680908,0.226074,0.230469,-23.335878,-3.648855,-9.267176
0.678955,0.234863,0.217529,-12.259542,1.557252,-6.870229
0.675049,0.251953,0.181641,-5.358778,3.236641,-5.236641
0.667725,0.296387,0.111572,-3.870229,0.106870,-3.656489
0.666016,0.319092,0.113770,-5.022901,-1.625954,-1.465649
0.660889,0.284180,0.100098,-4.854962,-5.099236,0.770992
0.656006,0.237793,0.111328,-2.595420,-7.137404,1.564885
0.641113,0.206299,0.089600,3.778626,-8.175572,2.381679
0.626465,0.183594,0.039307,8.007633,-11.282443,4.786260
0.618652,0.171875,0.035400,11.732824,-11.450381,8.000000
0.611816,0.188477,-0.007568,17.458015,-10.664123,9.366412
0.575928,0.169434,-0.015625,17.824427,-13.320611,10.450381
0.548096,0.137451,-0.008301,19.557251,-15.633588,13.083969
0.522461,0.149902,-0.006348,24.961832,-16.236641,15.374045
0.483398,0.144287,-0.008301,28.748091,-15.145039,16.954199
0.396973,0.114014,-0.089844,26.282442,-12.641221,19.076336
0.341553,0.232666,-0.071777,23.190840,-4.770992,20.610687
0.328857,0.502441,0.012207,16.572519,-6.488550,15.061069
0.320068,0.591064,0.034424,-1.389313,-17.595419,12.648855
0.302002,0.344238,0.174805,-27.389313,-20.229008,19.458015
0.324219,0.268555,0.204102,-30.114504,-23.809160,19.068703
0.368896,0.295166,-0.003174,-29.618320,-35.992367,9.687023
0.454834,0.641602,-0.260254,-41.977100,-49.870228,10.038168
0.221924,0.602295,-0.003174,-142.633591,-92.755722,98.236641
0.920166,0.318115,0.215820,-49.343510,-87.267174,105.770996
1.093018,0.501953,0.391846,-42.625954,-75.702293,15.633588
1.093750,1.017578,-0.019531,-73.702293,-107.938934,6.748092
1.984314,0.829346,1.156250,-44.251907,32.740459,15.198473
1.984314,0.759033,0.872314,-22.381680,248.175568,-35.519085
1.984314,1.611084,1.066406,-10.923664,128.282440,-48.946564
1.984314,1.182861,1.009766,-34.167938,98.175575,-71.969467
1.859375,0.631592,0.064453,-43.664124,10.129771,-8.068703
1.281738,0.332764,-0.360596,-8.908397,-17.152672,-5.977099
1.073730,0.426514,-0.291260,27.694656,-23.267176,14.351145
1.350342,0.473877,-0.001709,46.465649,-16.893129,29.312977
1.380615,0.534180,0.348633,56.305344,-26.641222,28.465649
1.444092,0.569580,0.227783,41.458015,-29.061069,36.320610
1.568848,0.373535,0.157227,13.137404,-36.282444,20.824427
1.622314,0.272705,0.209473,-15.351145,-48.641220,-15.625955
1.635742,0.179932,0.456787,-14.030535,-45.977100,-45.083969
1.636230,0.330078,0.580811,2.198473,-10.938931,-50.114502
1.574951,0.634521,0.549072,30.083969,25.809160,-34.969467
1.492676,0.878174,0.502686,44.358780,55.343510,-11.732824
1.358887,0.938965,0.567383,53.717556,68.679390,6.801527
1.178711,0.898437,0.328613,50.183205,76.022903,17.709923
1.039551,0.829346,0.260986,38.763359,67.435112,19.488550
0.952637,0.714600,0.230713,31.244274,51.473282,10.549619
0.894531,0.537109,0.317383,34.000000,37.923664,0.687023
0.868408,0.433594,0.257568,40.969467,32.541985,-9.549619
0.834473,0.436768,0.218506,43.526718,38.938931,-16.007633
0.781494,0.434570,0.137939,42.488548,45.488548,-14.587787
0.696045,0.345947,0.014893,36.076336,44.290077,-13.465649
0.628662,0.207764,-0.063232,29.412214,36.854961,-12.137404
0.655273,0.217285,0.161621,33.648853,34.618320,-12.748092
0.739258,0.478027,0.256104,44.488548,43.519085,-18.900763
0.721191,0.643311,0.221924,30.206106,53.618320,-20.511450
0.574951,0.637695,0.191406,3.061069,63.679390,-14.320611
0.411377,0.537354,0.128662,-23.167938,57.320610,-10.076336
0.319092,0.421387,0.067383,-39.343510,36.893131,-12.679389
0.302490,0.273682,-0.009521,-45.335876,14.152672,-13.564885
0.346680,0.144775,-0.027100,-43.038166,3.564885,-8.687023
0.410156,0.070557,0.028320,-30.931297,8.778625,-3.351145
0.430176,0.022217,0.048096,-16.564886,17.175573,0.190840
0.396484,-0.008789,0.072998,-5.061069,22.725191,1.916031
0.355225,-0.032715,0.085693,2.213740,20.633587,2.488550
0.327881,0.016113,0.077637,8.381680,15.091603,1.419847
0.326904,0.098633,0.024658,12.916031,4.557252,0.442748
0.350586,0.145264,0.035400,14.282443,-2.954198,0.702290
0.374756,0.161133,0.086182,17.229008,-2.854962,2.564885
0.372070,0.185059,0.114746,16.793894,-1.458015,4.030534
0.333984,0.205322,0.104248,11.190840,-0.198473,6.748092
0.283936,0.219482,0.102783,3.900763,-3.038168,12.259542
0.247314,0.236328,0.034668,-2.099237,-12.282443,15.816793
0.241943,0.162842,0.010986,-9.534351,-23.221375,18.534351
0.275146,0.145020,0.018311,-6.969466,-30.511450,21.786259
0.343506,0.160645,0.013672,0.541985,-38.687023,23.038168
0.408203,0.147705,0.035156,8.862596,-38.312977,23.061069
0.424561,0.127686,0.045898,16.221375,-31.679390,25.114504
0.433350,0.168213,-0.016602,23.061069,-27.931297,21.961832
0.387451,0.208496,-0.085693,19.496183,-31.244274,20.328245
0.357422,0.207764,-0.165527,12.931297,-41.824429,25.106871
0.389893,0.212646,-0.144775,10.358779,-51.732826,27.900763
0.454346,0.217773,-0.176270,13.748092,-60.374046,27.931297
0.501709,0.223877,-0.229004,17.832062,-64.786263,28.045801
0.548828,0.268066,-0.362061,16.687023,-66.557251,28.572519
0.753906,0.866211,0.422119,32.633587,-29.519083,19.488550
0.930664,0.995117,0.321533,44.442749,-44.702290,13.931297
1.015625,0.625000,0.266846,-25.816793,-55.671757,26.152672
0.987793,0.423828,0.606445,-44.587788,-29.541985,23.183207
1.020020,0.473389,0.604736,-30.763359,-44.015266,5.213740
1.145020,1.073730,0.498535,-23.618320,-39.648853,-4.541985
0.890137,0.506348,1.275146,-36.343510,-56.954197,102.564888
1.525879,0.502686,0.859863,-22.564886,-29.145039,71.740456
1.570313,0.842285,1.053223,-44.656490,5.954198,-3.061069
1.718994,1.009277,0.906982,-55.091602,-27.007633,-0.374046
1.984314,1.083984,0.949463,-50.175571,106.259544,-41.503819
1.984314,0.733887,0.504883,-40.862595,98.618324,-9.328244
1.984314,0.491943,0.108154,-26.152672,38.389313,-4.114504
1.969971,0.282471,-0.562256,-3.648855,-23.022902,-8.755725
1.606201,0.416016,-0.718018,5.404580,-32.396946,-6.229008
1.437988,0.447266,-0.327393,16.954199,-35.305344,5.328244
1.428711,0.626221,-0.035400,26.763359,-21.335878,13.022901
1.344238,0.627441,0.141846,13.824428,-27.656488,11.648855
1.370361,0.433594,0.281006,-10.511451,-23.206106,2.328244
1.342773,0.219971,0.333740,-28.442749,-29.664122,-10.404580
1.303955,0.121826,0.445557,-23.145039,-36.061069,-20.213741
1.320068,0.195068,0.515625,-0.694656,-26.000000,-9.251908
1.396240,0.437500,0.566895,28.465649,6.305344,5.717557
1.369873,0.653076,0.531738,50.877861,48.206108,13.625955
1.165527,0.771240,0.418457,55.480915,74.076332,18.671755
0.922607,0.785645,0.337891,46.870228,71.885498,18.251909
0.754883,0.732666,0.263428,27.679390,52.908398,12.213740
0.696777,0.594727,0.175049,3.274809,18.839695,3.893130
0.735107,0.423828,0.112061,-14.564885,-6.641222,-0.297710
0.845947,0.341064,0.112061,-17.740458,-10.786260,-3.702290
0.905518,0.274902,0.069580,-8.961832,1.992366,-4.916030
0.873535,0.268066,0.014893,-0.305344,24.427481,-2.450382
0.774414,0.271240,-0.010010,3.969466,36.755726,-0.221374
0.681396,0.302734,-0.029785,4.259542,35.534351,-0.839695
0.624756,0.348877,-0.028320,0.587786,26.961832,-3.412214
0.600342,0.406982,-0.017578,-7.511450,19.687023,-7.022901
0.588867,0.459717,0.049561,-15.007633,15.328244,-9.816793
0.575684,0.451660,0.059814,-23.259542,7.183206,-8.450381
0.576416,0.382568,0.064453,-31.839695,1.900763,-5.786260
0.587158,0.290039,0.087891,-37.664124,-0.351145,-4.992366
0.581055,0.220215,0.069336,-37.893131,-4.274809,-6.984733
0.572266,0.160400,0.070801,-36.335876,-5.519084,-8.954199
0.560303,0.119141,0.080078,-29.435114,-4.335878,-8.221375
0.540283,0.126953,0.045166,-19.045801,-5.496183,-5.809160
0.550049,0.172119,0.073975,-7.625954,-7.183206,-4.549618
0.540527,0.185059,0.063721,-0.114504,-10.381680,-3.580153
0.530518,0.199219,0.076904,2.435115,-9.564885,-1.618321
0.509766,0.233154,0.069580,2.061069,-10.519084,-0.954198
0.495361,0.249512,0.062988,-2.549618,-12.748092,-2.458015
0.469971,0.221680,0.060791,-9.206107,-15.221375,-4.519084
0.452637,0.197754,0.086182,-12.977099,-17.923664,-5.931298
0.443115,0.173584,0.072021,-10.923664,-22.206106,-5.221374
0.461914,0.122314,0.106445,-8.106871,-24.786259,-1.625954
0.462891,0.050781,0.133057,-2.267176,-23.167938,1.961832
0.447021,-0.027588,0.154297,5.435114,-20.007633,5.748092
0.411133,-0.052002,0.122559,10.671756,-18.717558,6.450382
0.398682,0.029297,0.115234,16.175573,-18.557251,9.145039
0.386230,0.111328,0.078369,17.664122,-19.030535,9.763359
0.362305,0.168457,-0.076660,11.259542,-18.312977,8.320611
0.405518,0.315674,0.138916,4.473282,-10.763359,5.068702
0.496338,0.448486,0.136719,-1.961832,-29.549618,3.122137
0.581543,0.295654,0.050781,-29.282442,-44.152672,4.656488
0.624023,0.155518,0.117188,-37.938931,-36.778625,6.893130
0.685059,0.127686,0.115723,-24.190840,-34.282444,4.213740
0.763672,0.210937,0.087158,-6.587786,-31.396946,0.854962
0.857178,0.265381,0.087402,3.572519,-31.862595,6.656488
0.631104,0.758545,-0.285889,-133.977097,-36.496181,55.129772
1.104980,0.039551,0.521240,13.442748,-32.404579,126.213737
1.465088,0.317871,0.347412,-0.541985,-43.450382,19.022902
1.984314,1.143311,0.834717,16.419847,22.641222,-81.748093
1.984314,0.654297,0.862305,-4.908397,145.427475,-57.847328
1.984314,1.127686,0.821533,-37.816795,121.694656,-13.068703
1.984314,0.798584,0.771484,-39.557251,84.587784,-53.381680
1.975098,0.890137,0.269775,-6.511450,34.862595,-41.503819
1.541016,0.823486,-0.288574,-3.030534,-0.694656,-23.374046
1.270264,0.575195,-0.449219,4.839694,-8.931297,3.358779
1.036133,0.479980,-0.070801,25.480917,-13.938931,7.984733
1.099854,0.691162,0.191162,29.312977,-23.671755,16.167938
1.231934,0.668457,0.346191,25.992367,-32.908398,28.961832
1.338623,0.641357,0.323730,2.213740,-39.381680,38.236641
1.385742,0.468262,0.275391,-10.931297,-43.488548,23.442749
1.427979,0.356445,0.171631,-29.381680,-59.526718,-13.793893
1.347900,0.149658,0.270996,-41.374046,-65.984734,-33.450382
1.389648,0.139404,0.398926,-31.832062,-26.717558,-30.396946
1.395020,0.331299,0.460937,-1.977099,15.076336,-30.335878
1.281006,0.578369,0.440674,29.473282,49.641220,-27.022902
1.146973,0.767090,0.355957,42.480915,67.267174,-11.786260
1.039307,0.838867,0.215332,35.053436,66.458015,2.862595
0.968994,0.749512,0.198242,18.465649,44.641220,2.893130
0.959717,0.547607,0.239258,9.061069,11.809160,-6.198473
1.018799,0.402344,0.310303,5.977099,-4.778626,-20.374046
1.090088,0.329590,0.307129,7.854962,-5.175572,-26.992367
1.108398,0.323486,0.309570,13.053435,15.732824,-27.809160
0.999023,0.279297,0.240967,15.145039,38.480915,-26.740458
0.839355,0.272705,0.162598,14.458015,49.473282,-25.267176
0.711670,0.324707,0.132812,10.923664,46.931297,-24.572519
0.622559,0.381104,0.087402,6.564886,37.671757,-25.877863
0.560303,0.339600,-0.005615,-0.297710,27.305344,-26.931297
0.548828,0.322754,0.031006,-10.839695,23.129770,-28.160305
0.567139,0.450928,0.029785,-16.702290,25.572519,-28.366413
0.571533,0.431396,0.051514,-34.854961,23.931297,-20.854961
0.540771,0.247559,0.032227,-56.473282,21.122137,-7.465649
0.468750,-0.001953,0.113770,-59.297710,29.022902,-0.847328
0.351074,-0.282227,0.211670,-45.236641,39.374046,1.595420
0.232910,-0.375244,0.195557,-15.778625,43.015266,4.038168
0.156250,-0.246582,0.090332,18.396946,41.656490,6.770992
0.128906,-0.111572,-0.031982,36.091602,31.969465,14.351145
0.153564,-0.045898,-0.101318,35.519085,21.221375,26.664122
0.200439,0.040527,-0.110840,29.854961,18.427481,34.755726
0.243408,0.105469,-0.114258,26.702290,9.923664,34.038166
0.251953,0.125488,-0.133789,24.664122,0.389313,30.908398
0.255127,0.137695,-0.160156,26.236641,-7.572519,31.496183
0.271973,0.099365,-0.178223,29.175573,-13.717557,32.755726
0.261230,0.091309,-0.198730,26.190840,-16.977098,38.633587
0.276855,0.143555,-0.227539,24.297710,-21.641222,44.328243
0.285889,0.260010,-0.284180,20.122137,-29.541985,46.832062
0.347656,0.518066,0.013428,21.137405,-21.229008,43.320610
0.452881,0.805420,0.304932,37.687023,-21.030535,37.839695
0.546875,0.688477,0.057373,8.534351,-52.977100,44.961834
0.722900,0.502686,0.395020,-19.740458,-47.465649,41.832062
0.865234,0.501709,0.528809,-8.152672,-46.328243,31.374046
1.018799,0.587402,0.556396,10.198473,-42.282444,11.061069
1.104980,0.616455,0.687500,18.984734,-22.938931,2.992366
1.106689,0.634277,0.712891,14.053435,2.351145,7.641222
0.838623,1.127197,0.256348,-122.465652,9.618320,26.167938
1.111572,0.411621,0.795654,-28.541985,6.977099,115.656487
1.312256,0.417480,0.478760,-92.801529,-59.526718,38.961834
1.557373,0.346680,0.727295,-56.656490,-116.664124,-5.702290
1.984314,0.572510,1.555908,-42.030533,11.435115,-26.045801
1.984314,0.149414,0.333496,-8.061069,138.961838,-16.183207
1.717773,0.465576,-0.081787,-9.816793,-1.755725,9.045801
1.982178,0.163330,-0.560303,-8.564885,-13.175572,-25.923664
1.522461,0.558838,-0.709961,29.068703,-36.931297,-26.992367
1.237061,0.731934,-0.189941,27.984734,-7.618320,-13.213740
1.275635,0.706543,0.128906,41.725189,-0.267176,29.755726
1.427246,0.824219,0.267822,10.671756,-2.541985,26.236641
1.369385,0.628418,0.309326,-9.656488,-20.900763,6.114504
1.348877,0.389648,0.380371,-24.374046,-27.595419,-0.068702
1.356201,0.177979,0.386230,-24.305344,-24.992367,-0.587786
1.389404,0.067871,0.446533,-6.122138,-14.755725,1.427481
1.396484,0.156250,0.490234,22.870230,10.473283,-0.526718
1.327881,0.383789,0.469482,47.961834,37.664124,-5.374046
1.200195,0.564209,0.417236,59.206108,51.167938,-4.053435
1.055908,0.666016,0.373291,52.770992,56.259541,0.274809
0.953613,0.690674,0.367432,38.282444,42.320610,0.725191
0.897949,0.562744,0.328125,20.519083,13.717557,-2.801527
0.920166,0.342529,0.320068,2.374046,-8.580153,-4.030534
0.997803,0.206299,0.359619,-1.847328,-12.679389,-6.862596
1.059814,0.190674,0.319336,3.847328,0.244275,-11.000000
1.018311,0.221924,0.200439,7.335878,21.106871,-13.183207
0.883545,0.265137,0.097656,7.229008,38.656490,-11.603053
0.719238,0.321289,0.006348,5.488550,43.282444,-10.809160
0.614502,0.359863,0.008057,-0.366412,35.007633,-13.572519
0.573486,0.421875,0.108643,-7.465649,28.061069,-16.206106
0.581299,0.530518,0.106445,-15.435115,16.099237,-15.648855
0.605225,0.494873,0.092285,-32.526718,5.007634,-11.122137
0.628906,0.382813,0.136230,-47.763359,3.885496,-8.412213
0.609619,0.298340,0.145508,-46.526718,3.900763,-10.213740
0.579590,0.225342,0.099854,-37.412212,1.931298,-13.656488
0.545410,0.163330,0.084473,-30.595419,4.778626,-14.335877
0.534424,0.180908,0.053955,-25.000000,9.473283,-13.198473
0.488770,0.194580,0.023437,-25.656488,12.587787,-11.847328
0.437256,0.141846,-0.019043,-28.641222,7.389313,-9.122137
0.419189,0.078125,-0.007813,-28.068703,-6.114504,-9.305344
0.453125,0.055908,0.038086,-16.061069,-20.534351,-13.595420
0.521240,0.048828,0.094727,-0.938931,-30.580153,-17.465649
0.559082,0.045166,0.130127,12.358779,-28.366413,-16.488550
0.569336,0.085937,0.110352,23.106871,-19.893129,-11.335877
0.565918,0.163574,0.087402,27.832062,-15.702291,-8.122137
0.535645,0.240723,0.086670,26.671755,-15.213740,-6.213740
0.504883,0.279541,0.068115,12.435115,-15.938931,-2.389313
0.476318,0.295654,0.039551,-7.763359,-18.053434,2.641221
0.460937,0.252686,0.014648,-27.007633,-23.229008,3.091603
0.436279,0.128906,-0.005127,-34.488548,-31.198473,0.923664
0.424805,0.035400,-0.029541,-26.267176,-37.580154,0.442748
0.442627,-0.014404,-0.007813,-7.664122,-38.870228,0.862595
0.449707,-0.025635,-0.034912,13.038168,-35.938931,2.091603
0.445557,-0.022217,-0.071777,25.083969,-32.412212,5.885496
0.416260,0.020508,-0.101807,25.847328,-27.954199,7.694656
0.404053,0.110107,-0.097900,22.557251,-30.702290,11.122137
0.388672,0.171631,-0.142334,16.000000,-39.183205,9.488549
0.397217,0.177979,-0.241455,1.160305,-44.648853,7.267176
0.544434,0.387207,0.293945,5.190840,-27.282442,1.038168
0.671631,0.344238,0.058594,3.725191,-61.458015,1.938931
0.798584,0.136475,0.143066,-16.152672,-72.778625,9.450381
0.900879,0.074951,0.399414,-1.793893,-45.061069,8.030535
0.975586,0.270996,0.403809,28.442749,-19.419847,-5.038168
0.951172,0.465332,0.438232,38.274811,4.030534,-4.229008
0.631836,0.904541,0.270508,-88.129768,9.656488,62.450382
1.162598,0.333496,0.959229,8.595420,27.511450,135.053436
1.388184,0.601562,0.814453,-30.671755,-5.503817,10.175572
1.984314,1.085205,1.362061,-5.938931,87.740456,-104.946564
1.962158,0.803223,0.846191,-12.282443,168.870224,-48.717556
1.984314,1.290771,0.773437,-29.015266,130.183212,-43.488548
1.984314,0.919434,0.334961,-34.381680,57.190838,-50.755726
1.973389,0.583008,-0.300049,-16.809160,-6.122138,-8.740458
1.535889,0.262451,-0.508789,13.778625,-45.938931,-11.908397
1.224854,0.591797,-0.364258,41.312977,-55.152672,-1.160305
1.192383,0.929199,-0.169678,42.259541,-47.702290,17.122137
1.259033,0.990479,-0.007568,36.923664,-34.167938,44.854961
1.304199,0.771240,0.076660,17.832062,-31.870230,48.770992
1.416504,0.375244,0.054199,-19.160305,-50.931297,18.839695
1.376221,-0.151123,0.287842,-43.984734,-79.312981,-26.908398
1.366699,-0.366211,0.437988,-38.358780,-83.603050,-33.656490
1.488770,-0.021484,0.571777,0.480916,-49.175571,-29.076336
1.518799,0.487793,0.604980,39.938931,11.977099,-21.801527
1.347168,0.782471,0.524414,62.206108,79.755722,-1.076336
1.045410,0.879395,0.447266,64.229004,108.007637,21.503817
0.786133,0.849121,0.311768,42.847328,80.114502,27.687023
0.696533,0.743164,0.324463,7.908397,37.763359,15.282443
0.694580,0.480713,0.188232,-29.137405,-9.145039,2.503817
0.835449,0.312012,0.114746,-53.450382,-42.267174,-4.961832
0.975830,0.167236,0.066162,-52.541985,-42.343510,-6.862596
1.036621,0.096436,0.077393,-34.931297,-7.259542,-3.503817
0.937988,0.103027,0.145264,-13.610687,41.045803,2.160305
0.718262,0.164307,0.167725,3.839695,64.351143,6.519084
0.513184,0.219482,0.140869,9.335877,58.396946,8.961832
0.426514,0.294189,0.024170,4.938931,30.152672,8.167939
0.496094,0.410889,-0.096191,2.167939,-5.221374,4.305344
0.665039,0.425781,-0.119141,2.511450,-25.450382,-0.045802
0.811279,0.277832,-0.004150,4.030534,-22.404581,1.885496
0.843506,0.210205,0.133545,18.450382,7.603054,3.984733
0.740234,0.161133,0.149902,24.312977,27.305344,4.931298
0.589844,0.177490,0.091797,15.167939,27.374046,3.328244
0.466797,0.236084,0.032471,1.343511,17.488550,0.770992
0.426758,0.243164,0.027588,-10.167939,1.167939,-0.755725
0.468262,0.203857,0.065918,-16.938931,-12.030535,-1.725191
0.531738,0.182617,0.048096,-15.175572,-17.000000,-1.786260
0.605469,0.215576,-0.032959,-9.221375,-17.893129,0.213740
0.644531,0.239258,0.047363,0.870229,-7.122138,1.061069
0.585449,0.223145,0.085693,8.160305,3.587786,2.625954
0.488037,0.240479,0.088623,4.625954,5.908397,2.534351
0.391846,0.228760,0.151855,-6.030534,3.572519,-0.129771
0.320801,0.184326,0.151123,-16.076336,-4.900764,-1.732824
0.333496,0.148437,-0.020752,-24.007633,-24.816793,-1.450382
0.402832,0.092773,-0.004639,-20.274809,-37.389313,0.717557
0.477295,0.018555,0.065186,0.030534,-37.427483,5.572519
0.512939,0.039307,0.088867,30.114504,-29.122137,7.435114
0.500488,0.136963,0.038086,53.450382,-17.793894,7.145038
0.422119,0.230469,-0.061523,53.694656,-9.053435,7.465649
0.329834,0.284424,-0.181396,30.717558,-10.946565,7.259542
0.370361,0.420898,0.000244,11.083969,-16.335878,-0.511450
0.468018,0.318604,-0.044922,-2.396947,-52.893131,-2.900763
0.609863,0.095215,0.073730,-9.931297,-74.786263,0.786260
0.750977,0.036377,0.284424,24.030535,-60.916031,-0.809160
0.827393,0.172607,0.331055,68.290077,-29.809160,-7.015267
0.816162,0.352051,0.314209,85.251907,0.557252,-3.450382
0.745117,0.506104,0.245361,64.335876,12.328244,13.778625
0.737549,0.780518,0.093750,13.305344,-0.755725,26.572519
0.529541,0.262939,0.479248,-96.396950,-35.488548,119.366409
1.157715,0.001465,0.351807,-59.969467,-55.732826,98.557251
1.560547,0.203857,0.834473,-66.145035,-49.786259,11.618320
1.984314,0.211182,0.888672,-11.732824,174.167938,-72.427483
1.835693,0.714355,0.406738,22.694656,147.236649,-45.480915
1.984314,0.989258,0.795898,-2.198473,129.183212,-118.969467
1.984314,1.084961,0.148682,-8.526717,8.328244,-93.709923
1.825195,0.499756,-0.552979,-39.465649,-20.656488,-24.221375
1.178223,0.125000,-0.650146,-24.938931,-29.877863,-4.809160
0.872314,0.449707,-0.521484,22.587786,-35.435116,-14.603053
1.108154,0.905762,-0.074219,50.587788,-18.496183,6.473282
1.164307,1.053955,0.044189,42.534351,-5.503817,51.839695
1.355469,0.930664,0.045410,19.290077,-25.580153,73.748093
1.526123,0.605469,0.230225,-7.053435,-40.167938,64.877861
1.619385,0.455566,0.281006,-18.267176,-60.816795,18.160305
1.512451,0.140381,0.361572,-39.511452,-83.938934,-29.129770
1.416016,-0.145264,0.449951,-46.274811,-58.198475,-29.374046
1.400391,-0.145264,0.509521,-15.152672,1.664122,-17.519083
1.275879,0.112549,0.488525,34.503819,57.450382,-12.511451
1.085693,0.447266,0.375732,72.595421,92.595421,-8.419847
0.892334,0.750732,0.137695,80.160309,90.824425,6.519084
0.798584,0.903076,-0.016846,57.053436,65.687019,15.244275
0.776367,0.789307,-0.063721,13.732824,25.190840,7.633588
0.832764,0.532715,-0.006348,-16.938931,-16.977098,-2.748092
0.973633,0.300781,0.052002,-28.740458,-36.900764,-8.503817
1.103516,0.187256,0.097900,-23.580153,-25.977098,-13.656488
1.112061,0.150391,0.151123,-10.633588,11.809160,-11.603053
0.968506,0.164307,0.135498,3.618321,42.519085,-6.083970
0.780029,0.194824,0.063477,9.259542,50.534351,-5.053435
0.632812,0.254883,0.005859,9.809160,37.961834,-9.137404
0.566650,0.277344,0.036133,10.580153,20.541985,-11.893129
0.579346,0.302734,0.098877,10.374045,9.351145,-11.114504
0.621582,0.324463,0.101318,10.389313,5.412214,-8.404580
0.646484,0.318848,0.136475,11.641221,10.137404,-6.320611
0.647217,0.287598,0.191650,8.641221,14.122137,-6.396946
0.610840,0.248779,0.158447,-0.862595,13.297709,-7.213740
0.571289,0.232422,0.145996,-8.763359,10.290076,-6.854962
0.552979,0.180420,0.104248,-14.198473,2.450382,-6.557252
0.554687,0.124512,0.109131,-13.290076,-0.992366,-5.435114
0.570312,0.134277,0.119385,-7.221374,1.129771,-2.374046
0.585449,0.194092,0.098145,-1.206107,3.435115,0.740458
0.576904,0.183594,0.104980,1.832061,5.984733,3.160305
0.536621,0.128174,0.115234,3.954198,5.274809,3.343511
0.495605,0.084717,0.138672,8.022901,3.809160,0.816794
0.450684,0.108643,0.135986,13.832061,1.854962,-1.702290
0.409912,0.116211,0.125244,15.809160,-0.412214,-0.381679
0.395996,0.123291,0.118164,11.267176,-3.396947,2.862595
0.404053,0.197998,0.085449,3.641221,-7.160306,5.213740
0.428467,0.271484,0.025635,-3.022901,-12.038168,5.351145
0.439453,0.272705,0.034912,-8.007633,-15.664123,8.114504
0.432617,0.201904,0.006104,-5.519084,-18.725191,10.007633
0.406006,0.100586,0.002686,0.396947,-21.595419,9.931297
0.349121,0.030273,-0.124023,5.419847,-22.274809,12.312977
0.331299,0.080566,-0.141357,4.961832,-19.396946,12.877863
0.374268,0.335693,-0.062744,14.374045,-16.404581,5.679389
0.437500,0.405518,-0.097656,-0.198473,-31.503817,6.809160
0.489502,0.285645,-0.019287,-20.755726,-36.465649,11.847328
0.553467,0.223633,0.023926,-20.343512,-39.076336,12.007633
0.626953,0.159668,-0.020020,-13.000000,-47.236641,5.755725
0.688477,0.127197,0.006104,0.160305,-44.114502,1.389313
0.792725,0.220459,0.124512,13.435115,-31.038168,-2.687023
0.885010,0.397705,0.181396,6.503817,-24.687023,2.129771
0.732178,0.969971,-0.141113,-123.595421,-28.549618,43.099236
1.233154,0.258789,0.558838,-31.328245,-32.236641,129.061066
1.664551,0.479004,0.371338,-59.305344,-73.259544,20.267176
1.984314,0.797119,1.259521,-8.396947,108.221375,-125.290077
1.829590,0.531494,0.771240,19.389313,171.152664,-60.175571
1.984314,1.048584,0.857910,19.549618,118.679390,-69.099236
1.984314,0.843506,0.162109,-4.335878,16.129770,-84.694656
1.597168,0.517578,-0.435547,-11.427481,-13.450381,-37.259541
1.157471,0.362793,-0.552002,1.519084,-29.748091,-16.938931
0.973877,0.693359,-0.370361,28.007633,-31.396946,-10.213740
1.226563,0.908691,-0.023926,45.877861,-14.129771,20.114504
1.294678,0.978516,-0.020752,30.236641,-13.091603,51.954197
1.439941,0.751709,0.052246,8.702291,-30.763359,62.106869
1.611084,0.485352,0.211426,0.015267,-51.374046,42.954197
1.689209,0.404541,0.275146,3.305344,-77.190842,-8.312977
1.615723,0.217041,0.251953,-12.473283,-88.129768,-30.511450
1.628906,0.030029,0.469482,-18.603054,-42.740459,-20.923664
1.546387,0.034424,0.563965,7.297710,30.778625,-12.282443
1.323975,0.317627,0.500488,50.038166,78.977097,-10.328244
1.084717,0.642334,0.320313,76.175575,92.236641,-3.366412
0.913818,0.852051,0.139160,67.755722,86.190842,6.450382
0.800293,0.856445,-0.019531,32.511452,53.687023,7.946565
0.762451,0.689453,-0.036377,-6.908397,11.435115,-2.061069
0.835449,0.458496,0.019775,-25.946566,-18.908398,-11.526717
0.972412,0.309814,0.045898,-27.854961,-25.496183,-17.038168
1.032715,0.238281,0.061279,-19.427481,-3.251908,-18.145039
0.934082,0.210205,-0.017578,-8.648855,26.244274,-13.732824
0.750977,0.187988,-0.039795,2.015267,42.671757,-10.763359
0.594482,0.191895,0.025879,11.732824,42.259541,-10.870229
0.496826,0.235107,0.053711,18.480917,32.442749,-14.748092
0.438721,0.278564,0.083984,18.015266,22.992367,-15.580153
0.437256,0.320068,0.129150,10.709924,16.740458,-13.511451
0.447510,0.339600,0.145508,-0.541985,11.732824,-11.564885
0.469238,0.343262,0.119629,-8.167939,4.824428,-10.244275
0.495850,0.311035,0.080078,-14.488549,-1.068702,-9.412213
0.508057,0.235840,0.046631,-18.694656,-4.305344,-7.603054
0.504639,0.134277,0.022705,-18.297710,-5.923664,-5.862596
0.501953,0.052734,0.042725,-12.572519,-3.877863,-5.419847
0.498291,0.042969,0.084717,-6.625954,-1.732824,-4.488550
0.499268,0.126953,0.094727,-1.671756,3.809160,-2.343511
0.469971,0.203369,0.061768,-3.961832,5.358778,-0.656489
0.431396,0.218750,-0.001221,-12.114504,-2.183206,0.503817
0.425049,0.214844,-0.000732,-18.206106,-14.198473,0.396947
0.442627,0.192383,0.036865,-18.412214,-21.427481,1.610687
0.467773,0.141113,0.085937,-15.625955,-23.076336,5.328244
0.462158,0.111816,0.094482,-7.106870,-19.748091,9.541985
0.450684,0.091064,0.080078,-1.656489,-17.328245,10.786260
0.442627,0.114990,0.093262,-3.404580,-20.206106,12.862596
0.458496,0.155273,0.078125,-7.755725,-23.038168,13.274809
0.453613,0.139893,0.038818,-16.030535,-27.396946,12.709924
0.449707,0.151611,-0.006104,-19.396946,-31.083969,13.412213
0.451660,0.190918,-0.072510,-17.015266,-34.320610,16.801527
0.442383,0.205078,-0.217285,-10.633588,-37.068703,17.290077
0.464111,0.386475,-0.220459,-5.793893,-25.305344,13.320611
0.548096,0.520020,-0.002686,2.725191,-27.206106,9.717557
0.599121,0.278809,-0.016113,-11.152672,-50.122139,13.969465
0.645264,0.127686,0.220215,-8.480916,-40.274811,13.847328
0.740234,0.165527,0.254883,13.740458,-35.625954,4.954198
0.829102,0.353027,0.212158,22.946566,-33.213741,-6.564886
0.927490,0.545654,0.262451,27.755726,-26.893129,-1.755725
1.069092,0.659912,0.277344,23.801527,-26.702290,3.961832
1.189697,0.708008,0.294678,12.427481,-25.175573,3.183206
1.017578,0.674072,0.325684,-72.793892,-32.625954,79.587784
1.584717,0.472900,0.454102,-10.564885,-28.839695,82.465652
1.984314,0.863037,0.492920,-47.206108,18.015266,-41.801525
1.909180,0.471680,0.277344,-22.038168,85.587784,-33.183205
1.754395,0.756836,0.210693,-34.442749,93.961830,0.328244
1.854492,0.527344,0.066162,-35.854961,93.595421,-4.198473
1.651367,0.354736,-0.002197,-12.748092,57.473282,-14.076336
1.480713,0.442383,-0.044922,9.488549,24.885496,-41.496181
1.470947,0.580322,-0.352539,14.282443,3.610687,-45.290077
1.542236,0.459229,-0.418701,-1.076336,4.526718,-3.267176
1.328369,0.369873,-0.106201,3.366412,-7.954198,10.259542
1.210449,0.537109,0.031982,26.725191,-21.137405,4.809160
1.230957,0.724365,0.150146,40.076336,-25.343512,22.587786
1.233154,0.760010,0.243652,29.709923,-34.793892,42.229008
1.317871,0.664795,0.343506,13.519084,-43.022900,48.641220
1.406738,0.743408,0.359863,-4.335878,-56.885498,22.450382
1.316895,0.543213,0.381836,-13.450381,-72.717560,-2.954198
1.341064,0.211182,0.373291,-25.648855,-45.809162,-4.236641
1.339600,-0.020264,0.360352,-21.114504,-12.038168,0.671756
1.237305,0.011230,0.292480,11.541985,25.312977,-2.931298
1.115723,0.213867,0.194824,51.748093,44.221375,-6.229008
1.034180,0.489990,0.012939,67.458015,47.580154,-0.450382
1.022461,0.724609,-0.066895,54.717556,48.343510,6.549618
1.010742,0.785156,-0.087402,24.511450,40.129772,8.526717
0.949951,0.623291,-0.060303,-7.503817,21.541985,3.816794
0.901611,0.381348,0.020752,-24.366413,4.045802,-3.664122
0.917725,0.250732,0.073486,-23.717558,-9.022901,-9.312977
0.972656,0.241943,0.058838,-17.465649,-9.938931,-10.045801
0.987793,0.272705,0.036865,-11.870229,3.770992,-6.862596
0.920898,0.296875,0.005371,-11.450381,22.603054,-1.061069
0.801025,0.306396,0.045410,-13.160305,35.610687,1.221374
0.683105,0.295654,0.064209,-18.244274,36.061069,0.572519
0.582764,0.334961,0.067383,-26.442749,29.984734,-3.534351
0.520020,0.335938,0.113770,-32.740459,19.335878,-5.900764
0.517090,0.269531,0.080566,-36.702290,6.671756,-3.778626
0.550781,0.195557,0.098877,-33.435116,2.251908,-1.366412
0.574463,0.142578,0.107422,-17.580153,6.931298,-2.175573
0.555176,0.102539,0.097168,0.358779,14.496183,-2.870229
0.532715,0.104492,0.104004,8.717557,19.664122,-0.038168
0.514404,0.134277,0.099854,8.633588,21.068703,2.320611
0.482666,0.140137,0.056641,1.648855,17.083969,1.557252
0.470703,0.180176,-0.009033,-3.145038,8.534351,-0.992366
0.501953,0.229980,-0.073486,-4.366412,-2.358779,-2.480916
0.541260,0.225098,-0.051025,-4.190840,-4.839694,-1.816794
0.538818,0.151123,0.010742,1.595420,0.854962,0.740458
0.508789,0.107910,0.054932,12.847328,6.198473,3.320611
0.447998,0.089355,0.061279,20.282442,4.709924,3.488550
0.385742,0.086670,0.044189,20.030535,0.519084,6.183206
0.353271,0.130371,0.050049,11.633588,-1.839695,10.938931
0.325684,0.155029,0.024902,-0.709924,-6.702290,13.251908
0.305664,0.148437,-0.015381,-11.755725,-15.083969,11.480916
0.304443,0.100830,-0.009277,-14.061069,-25.412214,13.206107
0.329102,0.032715,0.009277,-9.312977,-33.557251,13.870229
0.344482,0.012451,-0.024170,2.045802,-33.503819,13.633588
0.388428,0.072998,0.011475,8.106871,-28.022902,11.381680
0.498535,0.321289,0.240723,19.687023,-18.251909,4.404580
0.606201,0.378418,0.103271,14.824428,-35.290077,1.015267
0.686768,0.260986,0.168213,-5.022901,-31.977098,2.564885
0.730469,0.207031,0.235840,3.870229,-21.832062,-1.007634
0.788574,0.263428,0.214600,21.854961,-11.320611,-9.961832
0.812012,0.369141,0.134521,35.511452,3.977099,-12.190840
0.856689,0.480225,0.029297,35.030533,14.992367,-7.206107
0.815186,0.949219,-0.443604,-58.557251,1.030534,16.244274
1.152344,0.257813,0.268555,-16.679390,-18.458015,125.664124
1.984314,0.564697,0.435059,-25.847328,80.129768,-50.717556
1.470215,0.115234,0.353516,-15.717557,124.091606,-51.488548
1.984314,0.630127,0.867187,-28.770992,146.374039,-23.335878
1.984314,0.552246,0.985107,-41.503819,113.000000,-60.877861
1.984314,0.632324,0.829834,-24.557251,56.160305,-68.725189
1.775391,0.685059,-0.101807,-17.137405,-17.412214,-69.290077
1.136475,0.808350,-0.380615,3.755725,-39.618320,-51.656490
0.889404,0.950684,-0.278564,18.396946,-16.045801,-0.061069
1.048340,0.944580,-0.016602,34.702290,-4.160306,23.801527
1.247559,0.867432,0.149414,32.664124,-14.129771,39.465649
1.331543,0.718018,0.310059,20.465649,-20.503817,62.366413
1.418213,0.617676,0.391357,0.793893,-37.656490,58.603054
1.493408,0.515625,0.347168,-5.229008,-66.610687,25.969465
1.441650,0.204346,0.348145,-17.557251,-80.610687,0.801527
1.473145,0.016846,0.342041,-18.236641,-54.877861,-5.931298
1.477295,-0.061035,0.346436,0.679389,-1.206107,-16.603054
1.326660,0.046387,0.359619,34.465649,50.633587,-23.404581
1.099121,0.260498,0.257324,69.129768,77.335876,-19.374046
0.980469,0.529785,0.251953,80.664124,81.114502,-11.648855
0.927979,0.731445,0.171387,64.419846,64.564888,-6.282443
0.935547,0.828613,0.137207,34.511452,35.954197,-4.030534
0.968018,0.753662,0.177246,7.305344,13.572519,-1.129771
0.999512,0.571777,0.223389,-2.458015,4.809160,-0.236641
1.005859,0.371582,0.190674,4.450382,7.236641,-2.633588
0.978760,0.247070,0.150879,18.801527,19.770992,-8.450381
0.912354,0.238037,0.131836,31.396946,41.038166,-10.282443
0.795166,0.289795,0.007568,25.908398,54.129772,-9.351145
0.644043,0.290771,-0.076172,2.427481,54.916031,-9.389313
0.528320,0.353760,-0.000977,-15.603053,50.335876,-12.931297
0.458252,0.381592,0.096436,-25.221375,33.374046,-16.732824
0.447021,0.304932,0.138428,-33.206108,9.167939,-15.145039
0.485840,0.218994,0.202148,-31.549618,-3.114504,-10.580153
0.550293,0.189453,0.214355,-19.717558,-3.343511,-7.122138
0.581787,0.256104,0.140869,-7.549618,4.465649,-4.938931
0.564697,0.343262,0.077148,-3.541985,11.595420,-3.015267
0.527832,0.359131,0.045898,-8.068703,12.488549,-1.381679
0.498535,0.300537,0.131836,-19.824427,10.007633,0.549618
0.486084,0.239990,0.213623,-30.183207,2.099237,0.923664
0.498779,0.211182,0.195801,-33.938931,-8.732824,-1.358779
0.532471,0.187744,0.177734,-33.580154,-13.198473,-4.717557
0.552002,0.151123,0.137451,-30.030535,-10.786260,-6.557252
0.549561,0.154785,0.092773,-23.603054,-6.648855,-7.091603
0.532959,0.165527,0.041992,-16.595419,-5.786260,-6.862596
0.511963,0.153809,0.061523,-11.801527,-5.702290,-5.496183
0.468018,0.137451,0.080566,-9.633588,-5.725191,-2.312977
0.434326,0.159424,0.093018,-8.229008,-6.946565,1.832061
0.404297,0.186768,0.092529,-8.190840,-8.389313,3.725191
0.361328,0.167725,0.082275,-8.770992,-9.328244,4.083970
0.335693,0.142334,0.039307,-8.000000,-12.694656,4.335878
0.337402,0.154297,-0.036621,-7.106870,-18.366413,1.137405
0.343994,0.125000,-0.106689,-8.068703,-23.648855,1.007634
0.356201,0.050537,-0.124268,-7.885496,-22.145039,3.389313
0.353271,0.009521,-0.177490,-2.656489,-19.587786,2.908397
0.398438,0.036377,-0.172852,4.648855,-20.748091,-2.679389
0.542236,0.149658,0.014648,16.740458,-30.236641,-6.603054
0.747070,0.192627,0.046875,20.870230,-40.656490,-5.671756
0.871338,0.239258,0.107178,12.549619,-26.404581,-5.129771
0.923340,0.327393,0.269531,19.946566,-5.687023,-6.145038
0.937256,0.396240,0.328125,25.648855,0.129771,-6.038168
0.760742,0.970459,-0.176270,-69.732826,-4.648855,17.351145
0.738037,0.105713,0.590576,-44.351147,-28.068703,117.961830
1.196045,0.101563,0.272949,-34.450382,-23.717558,58.274811
1.007324,0.522217,0.663330,-29.541985,-6.862596,-3.244275
1.417725,0.741943,0.848145,-44.259541,14.358779,5.687023
1.984314,0.584229,1.154541,-53.396946,155.183212,-31.671755
1.984314,0.779541,1.510742,-42.106869,166.564880,-24.839695
1.984314,0.881104,1.741211,-13.656488,144.931305,-52.709923
1.984314,0.755127,0.458984,-26.816793,31.038168,-54.564884
1.692383,0.461182,-0.675537,-46.145039,-39.053436,-42.793892
1.118408,0.622803,-0.601318,-8.274809,-25.916031,-32.053436
0.985596,1.032227,-0.869629,28.946566,-28.213741,7.541985
1.398926,0.983398,-0.008789,44.839695,4.610687,31.106871
1.216797,0.845703,0.172119,35.931297,-15.442748,49.175571
1.244873,0.711182,0.345459,-2.396947,-38.366413,49.595421
1.423340,0.545898,0.519043,-30.328245,-53.465649,35.610687
1.413818,0.269043,0.486084,-45.190838,-80.885498,-8.816793
1.314941,-0.020508,0.604736,-36.038166,-75.167938,-28.374046
1.343750,-0.053711,0.529053,-10.374045,-36.473282,-26.503817
1.342285,0.111572,0.489502,24.778625,9.900764,-29.572519
1.207031,0.327637,0.415283,58.885498,53.641220,-28.732824
1.043213,0.538086,0.302734,72.725189,68.404579,-14.374045
0.972656,0.678467,0.207764,61.213741,56.809162,2.664122
0.993896,0.749756,0.210205,36.061069,29.374046,15.877863
1.062744,0.737793,0.321533,9.839695,22.190840,13.450381
1.036377,0.554199,0.287842,-9.358779,4.885496,6.450382
0.990967,0.308105,0.293701,-15.725191,-1.083969,0.358779
0.945068,0.116943,0.297852,-6.511450,3.358779,-5.244275
0.886963,0.070801,0.283691,9.480916,15.305344,-12.572519
0.787598,0.172852,0.210449,23.633587,32.633587,-14.656488
0.680908,0.329834,0.113037,24.641222,41.366413,-10.526717
0.580322,0.434082,0.016602,15.358779,36.625954,-6.229008
0.517334,0.437988,0.002930,2.000000,20.732824,-3.541985
0.515625,0.373047,0.047363,-3.618321,-2.045802,-2.389313
0.577637,0.258545,0.126709,1.755725,-13.236641,-5.183206
0.629639,0.169189,0.166016,11.038168,-10.824428,-8.541985
0.644775,0.204590,0.182373,18.809160,1.557252,-8.786260
0.604736,0.301514,0.113037,15.854961,6.809160,-5.641222
0.553955,0.308105,0.057617,-0.992366,0.809160,-1.435115
0.524902,0.254639,0.073975,-17.229008,-11.770992,-0.114504
0.548828,0.207031,0.104004,-22.145039,-26.580153,-0.603053
0.617920,0.174316,0.155762,-16.099237,-30.358778,-1.709924
0.637207,0.135986,0.211182,-4.251908,-23.198473,-1.106870
0.603760,0.145264,0.196777,7.549618,-14.603053,2.038168
0.544678,0.213135,0.179199,12.267176,-9.961832,4.152672
0.486572,0.265137,0.145996,7.923664,-11.801527,5.358778
0.442139,0.264404,0.139404,-5.007634,-18.893129,6.045802
0.432373,0.253418,0.131348,-13.488549,-26.786259,4.175572
0.428955,0.221436,0.109131,-17.053434,-33.099236,1.862595
0.435303,0.177002,0.130127,-15.022901,-33.839695,4.770992
0.418213,0.134766,0.155762,-9.839695,-30.618320,8.389313
0.372559,0.130859,0.127686,-3.366412,-27.664122,11.007633
0.324219,0.155273,0.124268,2.809160,-26.396946,12.358779
0.274170,0.148193,0.058105,7.335878,-28.580153,10.931297
0.223633,0.086426,0.000732,6.091603,-32.633587,9.832061
0.188477,0.082031,-0.077881,7.198473,-37.587788,10.259542
0.228027,0.245850,-0.022461,9.931297,-37.114502,7.595420
0.342041,0.564941,0.163574,20.053434,-38.152672,0.954198
0.503174,0.503418,0.110107,3.854962,-62.511452,6.045802
0.619385,0.286377,0.231934,-21.038168,-61.038166,9.435115
0.693848,0.270020,0.289795,-6.572519,-46.229008,0.740458
0.701904,0.332031,0.120605,4.068702,-40.381680,-7.541985
0.752686,0.383057,0.034912,10.175572,-37.931297,-7.404580
0.849854,0.427979,0.058105,14.053435,-38.916031,-4.183206
0.635742,0.605713,-0.002441,-105.473282,-60.282444,63.664124
1.421143,0.415771,0.301514,-7.335878,-43.038166,111.717560
1.984314,0.693604,0.467285,-36.076336,-34.954197,-11.809160
1.984314,0.084473,0.410645,-26.694656,140.106873,-105.801529
1.984314,0.538818,0.718750,-10.717557,168.717560,-48.816795
1.984314,0.798828,0.815186,-17.480917,117.656487,-129.435120
1.984314,0.639893,0.329102,-25.770992,19.618320,-112.977097
1.568604,0.490234,-0.242920,-24.801527,-28.633587,-70.687019
0.756348,0.467041,-0.094238,-0.015267,-32.389313,-59.938931
0.477783,1.001953,-0.016602,19.801527,16.106871,-11.709924
0.672852,1.371094,0.077393,19.755726,6.580153,10.022901
1.073486,0.781494,0.367676,30.992367,-4.427481,47.755726
1.091309,0.625977,0.426270,35.832062,-21.938931,59.167938
1.207275,0.612793,0.357666,29.847328,-50.236641,60.389313
1.271973,0.464600,0.332275,5.641222,-60.893131,64.412216
1.329102,0.388916,0.353271,-6.030534,-63.702290,53.099236
1.245361,0.359131,0.273682,-13.190840,-75.190842,19.694656
1.188965,0.298340,0.342773,-15.664123,-65.694656,9.229008
1.291992,0.375000,0.209229,-5.404580,-22.801527,2.946565
1.310303,0.430420,0.056641,0.381679,4.503817,0.534351
1.277832,0.446533,-0.054932,-1.259542,16.824427,8.343512
1.277100,0.406982,0.005615,0.961832,14.641221,15.839695
1.332520,0.423828,0.136475,16.137405,7.916030,10.923664
1.359131,0.512939,0.165771,30.404581,10.923664,3.770992
1.304688,0.527832,0.101807,34.687023,9.702291,5.679389
1.207275,0.453613,0.154785,33.061069,29.160305,9.190840
1.065918,0.384766,0.135498,34.106869,36.183205,4.259542
0.940674,0.407715,0.090576,37.183205,32.557251,-5.946565
0.853760,0.433838,-0.037109,35.396946,22.549618,-11.297709
0.820312,0.454834,-0.077148,26.274809,19.053434,-10.137404
0.783447,0.445557,-0.026367,23.061069,22.969465,-8.709924
0.705811,0.397217,0.016602,21.778625,26.061069,-10.320611
0.620361,0.362793,0.001953,20.969465,22.954199,-12.938931
0.563232,0.335693,-0.048828,17.312977,12.274809,-13.977099
0.584229,0.360596,-0.002686,18.549618,5.000000,-14.274809
0.635010,0.440674,-0.024414,17.229008,2.297710,-16.694656
0.643311,0.447510,0.015137,7.328244,9.259542,-13.969465
0.591309,0.400391,0.112061,-2.969466,18.061069,-7.847328
0.524902,0.302246,0.113525,-11.045801,15.984733,-6.839694
0.475830,0.200684,0.162109,-16.022902,9.137404,-8.694656
0.439697,0.115723,0.204834,-13.213740,7.351145,-10.038168
0.415039,0.053223,0.205078,-8.381680,7.145038,-6.137404
0.417236,0.072754,0.167725,-0.824427,7.442748,-1.923664
0.447998,0.083252,0.104736,2.167939,4.091603,2.709924
0.501221,0.074951,0.162109,-2.427481,0.732824,8.427481
0.527832,0.153809,0.222900,-7.450382,1.671756,15.351145
0.527344,0.249023,0.206787,-11.938931,3.977099,17.473282
0.504150,0.264404,0.208496,-23.801527,1.320611,15.931297
0.469971,0.230225,0.187988,-34.885498,0.244275,15.045801
0.467529,0.184082,0.145264,-46.687023,-4.145038,12.687023
0.446533,0.123779,0.108154,-53.847328,-6.122138,11.335877
0.407715,0.030029,-0.018311,-53.068703,-6.931298,12.763359
0.377686,-0.026855,-0.123535,-40.801525,-12.274809,16.923664
0.379150,-0.021240,-0.098145,-16.145039,-13.427481,17.854961
0.377686,-0.010010,-0.110107,4.511450,-15.992367,17.114504
0.374512,0.059814,-0.164307,12.664123,-15.671756,17.793894
0.389893,0.186035,-0.351563,9.549619,-22.068703,17.900763
0.435059,0.271240,-0.392090,-9.190840,-31.824427,14.328244
0.580322,0.577393,-0.125977,-6.679389,-37.068703,6.091603
0.751221,0.604248,-0.180908,-12.938931,-60.793892,1.022901
0.838867,0.442139,-0.011475,-25.175573,-56.671757,3.374046
0.879150,0.360596,0.235107,5.908397,-33.923664,-2.282443
0.834961,0.333740,0.145508,26.709923,-19.641222,-15.748092
0.732666,0.393311,0.188232,34.442749,-8.183207,-11.404580
0.704590,0.479736,0.270508,36.419846,-4.854962,-4.145038
0.722412,0.479248,0.320313,13.076336,-9.221375,0.000000
0.568115,0.484863,0.549805,-75.045799,-16.717558,76.717560
1.188477,0.329834,0.717285,-25.152672,-7.748092,84.938934
1.984314,0.700928,1.078613,-34.290077,70.610687,-73.664124
1.691406,0.367920,0.821777,-5.038168,127.633591,-61.091602
1.984314,0.982422,0.814453,-36.229008,146.496185,-45.908398
1.984314,0.677246,0.812744,-43.778625,106.412216,-65.816795
1.984314,0.580566,0.102295,-33.969467,28.030535,-60.824429
1.613037,0.364502,-0.719727,-28.992367,-28.503817,-54.862595
0.936035,0.403320,-0.738525,1.396947,-21.335878,-38.992367
0.856201,0.710205,-0.461670,13.519084,-6.206107,-24.534351
1.022705,0.813232,0.219238,6.488550,17.083969,4.213740
1.124756,0.658936,0.326172,15.992367,5.656488,33.664124
1.219238,0.552246,0.373047,25.877863,-14.977099,35.488548
1.268066,0.556641,0.364258,28.656488,-41.671757,31.335878
1.328613,0.530273,0.311035,24.534351,-53.137405,31.015266
1.307373,0.476074,0.311523,1.541985,-57.916031,24.564886
1.312012,0.394287,0.287598,-11.274809,-51.809162,14.984733
1.226074,0.301758,0.329102,-13.580153,-48.900764,-7.274809
1.167969,0.279541,0.345703,-7.274809,-19.213741,-9.839695
1.119141,0.289063,0.243652,7.053435,8.832061,-5.679389
1.073242,0.357910,0.289551,22.984734,23.656488,2.358779
1.057373,0.509521,0.269531,37.847328,32.717556,8.328244
1.069336,0.631104,0.168701,37.625954,26.633587,10.106871
1.096924,0.648682,0.088623,24.656488,13.458015,8.160305
1.144531,0.608887,0.083740,13.206107,2.900763,2.885496
1.173096,0.533691,0.017578,8.778625,-4.290076,-3.595420
1.189941,0.453857,0.026611,7.946565,0.404580,-6.770992
1.166504,0.397217,0.082031,12.229008,12.106871,-7.145038
1.069824,0.343262,0.087646,19.916031,25.763359,-7.885496
0.935059,0.308594,0.091797,20.557251,34.404579,-8.984733
0.804443,0.324463,0.095947,20.824427,34.389313,-9.572519
0.708496,0.381348,0.045410,18.549618,27.435114,-10.351145
0.643555,0.410400,-0.004150,13.030535,18.328245,-10.167939
0.600830,0.391846,-0.053711,12.786260,7.083970,-8.213740
0.610107,0.333984,-0.035156,15.564885,-3.648855,-7.167939
0.647217,0.346191,0.044434,20.175573,-3.396947,-8.923664
0.648193,0.325684,0.119141,18.511450,4.931298,-9.045801
0.609375,0.307617,0.179932,8.587787,12.175572,-6.709924
0.547852,0.309570,0.184814,-1.702290,11.839695,-5.251908
0.507324,0.267334,0.145996,-9.679389,1.061069,-6.145038
0.530762,0.216553,0.089355,-14.473283,-11.801527,-5.786260
0.613770,0.233398,0.106201,-8.427481,-16.206106,-4.694656
0.692627,0.273682,0.154297,1.389313,-8.076336,-3.740458
0.673584,0.266602,0.137939,7.251908,1.877863,-1.167939
0.604492,0.220459,0.161865,9.091603,7.938931,0.954198
0.537598,0.180176,0.172852,7.290076,5.259542,0.091603
0.500732,0.179443,0.188232,6.030534,-1.206107,-0.557252
0.499512,0.195312,0.214355,5.229008,-4.328244,0.832061
0.513672,0.216553,0.207031,0.900763,-4.167939,4.419847
0.514404,0.255371,0.175293,-0.992366,-3.236641,6.961832
0.488037,0.257324,0.160889,-3.992366,-2.053435,7.419847
0.429687,0.195312,0.125244,-6.351145,-3.908397,8.641221
0.382568,0.141357,0.125977,-9.687023,-5.007634,9.549619
0.346924,0.137695,0.110596,-10.854961,-8.526717,11.374045
0.347900,0.160645,0.069092,-15.435115,-15.328244,12.519084
0.360840,0.169922,0.027832,-21.053434,-23.106871,14.244275
0.383301,0.157715,0.012695,-23.938931,-27.595419,17.427481
0.407959,0.183594,-0.046875,-18.045801,-28.656488,19.961832
0.432373,0.204834,-0.136230,-8.145039,-28.580153,19.412214
0.422363,0.174561,-0.237061,-6.290076,-27.572519,17.931297
0.479492,0.427490,-0.244629,3.450382,-21.183207,7.816794
0.589844,0.528564,-0.152832,-0.534351,-37.229008,3.954198
0.666748,0.375488,-0.137207,-24.877863,-51.274811,11.625955
0.713379,0.274902,0.014893,-27.458015,-43.061069,11.816793
0.786865,0.327148,-0.053711,-7.610687,-43.022900,-0.435115
0.797607,0.410645,-0.080566,1.519084,-41.374046,-7.755725
0.818604,0.409668,-0.079346,2.000000,-39.740459,-3.709924
0.885498,0.353760,0.065186,0.473282,-35.595421,-2.053435
0.695312,0.352295,0.303223,-88.610687,-40.595421,75.732826
1.856934,0.483643,0.719238,-11.442748,6.587786,71.549622
1.984314,0.375977,0.607666,-16.595419,124.526718,-104.671753
1.383301,0.525391,0.740234,0.564885,91.442749,-22.122137
1.984314,0.818359,0.682373,-45.335876,111.908394,-47.038166
1.984314,0.651855,0.947266,-37.809162,90.000000,-53.236641
1.984314,0.756836,0.533691,-19.770992,49.335876,-58.099236
1.726563,0.747070,-0.194092,-19.740458,-10.419847,-60.229008
1.365967,0.507812,-0.511475,-10.312977,-20.541985,-28.335878
1.067139,0.476318,-0.328369,9.664123,-18.748091,-3.068702
1.012939,0.648193,0.192627,34.786259,-24.351145,6.061069
1.095703,0.860596,0.276367,50.610687,-25.610687,32.435116
1.176270,0.801758,0.231689,29.832062,-32.641220,59.290077
1.224854,0.532715,0.225098,8.946565,-54.251907,62.297710
1.292969,0.359131,0.241943,3.236641,-67.740456,32.847328
1.336426,0.205811,0.199951,-8.648855,-74.748093,10.511451
1.346924,0.080322,0.247559,-13.351145,-59.183205,1.641221
1.290771,0.153564,0.273193,-3.480916,-38.351147,-14.427481
1.158936,0.285400,0.388184,18.473282,-16.534351,-17.290077
1.179688,0.458008,0.311768,34.770992,26.061069,-7.274809
1.161621,0.650879,0.188965,39.145039,39.061069,6.679389
1.161133,0.779541,0.030518,28.824427,30.175573,15.969465
1.198242,0.760986,0.006348,9.358779,12.290076,14.656488
1.189453,0.581299,0.061523,-3.862595,-3.770992,8.992367
1.173584,0.379639,0.135742,-4.931298,-1.099237,6.061069
1.084717,0.190430,0.109619,4.389313,11.465649,1.923664
0.996338,0.150146,0.043701,18.564886,20.297710,-0.900763
0.923828,0.326660,-0.024658,29.198473,33.755726,-5.374046
0.848633,0.549561,-0.157715,31.900763,37.702290,-6.984733
0.781006,0.623535,-0.211670,19.259542,27.122137,-1.694656
0.747803,0.558350,-0.092041,5.900764,18.488550,1.679389
0.732178,0.465088,0.030029,0.328244,11.465649,-0.702290
0.725586,0.430176,0.004395,-1.679389,3.541985,-5.900764
0.716797,0.369873,-0.019287,-6.290076,-1.244275,-9.503817
0.705566,0.300781,0.034668,-7.274809,3.236641,-10.717557
0.687500,0.246094,0.027832,-5.557252,5.419847,-12.946565
0.685547,0.300049,0.048096,-3.473282,12.473283,-15.129771
0.662842,0.348389,-0.012207,-3.916031,17.839695,-16.022902
0.624268,0.341064,-0.033447,-9.862596,15.877863,-12.435115
0.563965,0.238525,0.103271,-10.740458,16.419847,-7.114504
0.519531,0.166992,0.187988,-5.007634,12.320611,-3.534351
0.482910,0.152100,0.179687,-0.236641,9.366412,-2.335878
0.445312,0.133545,0.154785,4.603054,10.122137,-0.595420
0.446289,0.139648,0.114746,6.206107,8.480916,-0.030534
0.461426,0.227539,0.098877,6.938931,4.603054,-2.137405
0.467041,0.244629,0.107178,3.908397,2.534351,-2.717557
0.449219,0.173584,0.133301,-2.969466,3.870229,-0.862595
0.429932,0.147217,0.186523,-4.931298,4.328244,1.824427
0.413086,0.158447,0.196777,-4.305344,4.221374,3.786260
0.383057,0.148437,0.201904,-3.809160,3.236641,7.396946
0.362793,0.172852,0.141602,-0.213740,2.000000,11.717557
0.339600,0.213867,0.060303,5.770992,-2.198473,14.763359
0.314697,0.190186,-0.009277,4.931298,-7.770992,17.236641
0.296631,0.145996,0.012451,0.335878,-9.450381,23.000000
0.278564,0.158936,0.034912,-4.236641,-12.503817,28.236641
0.274658,0.200684,-0.043945,-8.358779,-20.198473,30.549618
0.293945,0.185303,-0.135254,-14.442748,-29.061069,31.977098
0.294922,0.090820,-0.373779,-14.244275,-37.839695,31.763359
0.395996,0.217041,-0.370850,-8.633588,-39.473282,21.503817
0.606689,0.366943,-0.139648,9.152672,-55.938931,9.503817
0.748779,0.185547,-0.153564,-4.961832,-69.755722,10.625955
0.846924,0.110352,0.146729,-0.068702,-47.244274,13.022901
0.899414,0.147949,0.113770,23.381680,-39.992367,5.038168
0.923828,0.326172,0.048584,36.160305,-38.694656,-5.152672
1.051270,0.466797,0.075928,39.793892,-38.862595,4.824428
1.018555,0.765625,-0.184570,-63.374046,-35.778625,55.213741
1.606934,0.325195,0.316406,-24.557251,-10.832061,128.961838
1.984314,0.441650,0.443359,-22.778625,161.786255,-96.748093
1.296875,0.455322,0.433838,15.702291,110.267174,-54.312977
1.984314,0.951416,0.668701,-2.045802,145.732819,-75.458015
1.984314,0.932373,0.884521,-14.564885,73.854965,-66.969467
1.942627,0.890137,0.591064,-11.938931,38.251907,-41.381680
1.558838,0.666260,0.114258,-5.732824,-15.213740,-13.656488
1.104248,0.478271,-0.143799,10.564885,-24.236641,4.709924
0.940918,0.617187,-0.250732,17.847328,-18.877863,13.068703
1.142334,0.701660,-0.251465,3.404580,-11.068703,25.732824
1.281494,0.540527,-0.108154,-2.068702,-6.030534,44.267174
1.354248,0.384766,0.088623,-4.908397,-11.007633,41.763359
1.356689,0.254883,0.306396,-6.343512,-29.908398,26.312977
1.366943,0.223633,0.443848,-7.625954,-44.282444,8.992367
1.350586,0.336426,0.466797,-11.854961,-42.732826,-0.618321
1.318359,0.541992,0.437744,-7.053435,-31.687023,-3.503817
1.330322,0.729248,0.336182,4.709924,5.244275,0.480916
1.268555,0.796387,0.068848,12.328244,28.587786,8.687023
1.180420,0.761230,0.151367,18.000000,40.328243,12.511451
1.096436,0.621582,0.175537,13.679389,31.312977,12.977099
1.119141,0.452148,0.226807,-4.267176,9.557252,7.816794
1.169678,0.238281,0.141602,-25.709923,-4.908397,2.549618
1.268311,0.130615,0.128418,-28.236641,-12.519084,-4.946565
1.309814,0.103271,0.114502,-15.496183,3.946565,-13.687023
1.228516,0.222168,0.069580,7.961832,36.427483,-15.725191
1.054932,0.391846,0.010254,26.473282,64.160309,-11.641221
0.822754,0.422119,0.009521,32.076336,69.236641,-6.198473
0.642090,0.394531,0.045654,23.183207,54.900764,-0.801527
0.574463,0.428711,-0.008057,13.305344,21.679390,-2.458015
0.656982,0.406006,-0.035645,-1.358779,-4.274809,-6.748092
0.813477,0.266602,0.170410,-15.618320,-5.381680,-7.160306
0.854492,0.124023,0.279785,-15.007633,9.511451,-8.961832
0.798096,0.037354,0.392822,-6.015267,27.442749,-10.198473
0.695557,0.112305,0.393555,11.938931,37.862595,-9.137404
0.631836,0.233154,0.286377,19.351145,38.885498,-7.625954
0.604980,0.341797,0.144775,10.534351,31.015266,-4.473282
0.603027,0.393555,0.084961,-1.099237,22.297710,0.068702
0.631104,0.338135,0.074463,-11.633588,16.282442,1.694656
0.671875,0.291260,0.043945,-15.480916,11.160305,0.061069
0.691895,0.262451,0.042236,-13.427481,13.519084,-1.740458
0.653564,0.209961,0.039307,-13.045801,18.625954,-1.053435
0.567627,0.178223,0.051025,-13.282443,23.702290,-1.595420
0.470703,0.116943,0.086182,-15.595420,24.496183,-1.923664
0.398926,0.095215,0.010010,-11.916031,12.702291,-3.404580
0.396729,0.114258,-0.031250,-1.038168,1.221374,-6.251908
0.435791,0.139160,-0.015625,12.854961,-4.099236,-6.625954
0.454102,0.157227,-0.018311,22.061069,-2.442748,-3.244275
0.422852,0.191406,-0.015869,26.671755,0.625954,3.641221
0.365479,0.229248,0.044678,28.595419,1.091603,6.763359
0.306396,0.227783,0.049561,23.755726,-8.465649,8.145039
0.278320,0.212646,0.019287,14.053435,-20.068703,9.442748
0.270508,0.184326,0.006592,5.435114,-25.534351,9.625955
0.272217,0.144287,-0.024658,0.458015,-32.114502,8.290076
0.276855,0.120117,-0.064941,0.366412,-36.870228,7.236641
0.292969,0.119141,-0.143311,5.618320,-41.977100,4.847328
0.310791,0.112305,-0.161621,13.770992,-48.015266,7.015267
0.343018,0.142578,-0.197266,27.427481,-46.503819,7.763359
0.334717,0.219727,-0.262451,43.519085,-46.526718,11.022901
0.329590,0.285400,-0.166504,62.984734,-46.938931,11.587787
0.370117,0.283691,-0.358643,70.847328,-53.091602,6.664122
0.482910,0.358643,-0.219727,67.969467,-47.977100,-2.030534
0.772949,0.674316,0.372070,73.015266,-38.748093,-6.297710
0.990234,0.532471,0.035400,33.954197,-73.389313,-2.045802
1.102295,0.203857,0.177246,-6.587786,-65.152672,-3.900763
1.198486,0.115479,0.400146,0.442748,-50.022900,-13.091603
1.146973,0.844971,0.112549,-29.954199,-22.366413,-0.496183
0.969727,-0.412598,1.196533,8.541985,-8.908397,155.938934
1.452148,-0.159668,0.701904,5.404580,12.465649,52.893131
1.526855,0.555908,0.875488,-7.381680,27.160305,-26.259542
1.984314,0.823975,0.871338,-21.824427,134.732819,-66.786263
1.984314,1.074219,0.504395,-13.755725,129.755722,-30.854961
1.984314,1.185303,0.367432,-31.335878,135.045807,-79.824425
1.984314,0.996826,0.139648,-23.297710,63.458015,-77.053436
1.930176,0.799805,-0.360596,-19.786259,-8.442748,-52.839695
1.358154,0.400146,-0.490234,-9.770992,-35.793892,-27.122137
0.910400,0.463135,-0.416016,9.603053,-22.076336,-12.000000
0.862793,0.876709,-0.360840,24.480917,-20.885496,4.053435
1.105225,0.982422,-0.104736,13.053435,-5.587786,31.893129
1.207031,0.737061,0.107178,0.725191,-18.114504,48.251907
1.351074,0.483154,0.254150,-4.465649,-31.847328,47.618320
1.437744,0.362549,0.353027,-4.106870,-52.526718,27.519083
1.486084,0.378662,0.343018,-13.709924,-63.954197,1.770992
1.455566,0.297363,0.309082,-33.175571,-72.870232,-15.984733
1.399902,0.224365,0.417236,-31.885496,-44.427483,-13.480916
1.368408,0.261963,0.425781,-2.328244,14.664123,-2.236641
1.242188,0.430664,0.358154,35.427483,48.320610,8.061069
1.092285,0.572754,0.255371,50.282444,63.549618,16.404581
0.982910,0.729248,0.135986,51.839695,57.793892,14.587787
0.934082,0.747803,-0.034424,27.106871,34.717556,5.671756
0.911865,0.600098,-0.149902,-3.618321,7.793893,-2.290076
0.945068,0.365479,-0.135254,-22.832062,-9.595420,-7.954198
1.032227,0.258545,-0.031738,-16.694656,-9.000000,-9.580153
1.068359,0.241455,0.001953,-4.862596,5.908397,-14.145039
0.992920,0.248047,0.026611,6.770992,28.244274,-13.435115
0.856689,0.241943,-0.006104,11.167939,35.931297,-11.374045
0.737305,0.246582,0.009277,13.076336,32.702290,-11.488549
0.673340,0.299561,-0.005127,10.870229,22.374046,-13.030535
0.661865,0.391602,-0.007324,7.290076,15.824428,-14.274809
0.672119,0.466797,-0.009521,-0.320611,12.221375,-13.389313
0.660645,0.444336,0.047852,-7.061069,15.099236,-11.961832
0.628418,0.363770,0.106934,-13.274809,14.190840,-13.167939
0.618896,0.259521,0.176270,-15.755725,9.251908,-16.816793
0.615234,0.176514,0.192627,-10.282443,4.305344,-18.206106
0.621826,0.154297,0.197754,-3.442748,5.496183,-17.290077
0.612061,0.148193,0.167969,5.053435,9.839695,-14.358779
0.598389,0.163818,0.158936,11.862596,10.938931,-10.946565
0.598145,0.239990,0.142090,17.618320,11.870229,-8.923664
0.583740,0.313965,0.121094,17.496183,11.244275,-7.007634
0.569336,0.365967,0.109863,13.244275,10.679389,-6.083970
0.540283,0.336182,0.154297,7.839694,10.366412,-5.877862
0.484619,0.219727,0.192871,3.145038,9.480916,-5.656488
0.442139,0.132568,0.210937,3.251908,7.618320,-4.961832
0.418945,0.136230,0.208740,7.839694,6.183206,-4.541985
0.406738,0.202637,0.156006,11.183207,5.671756,-4.229008
0.390381,0.227539,0.079102,8.832061,3.877863,-1.595420
0.381104,0.208984,-0.007568,5.274809,-1.045802,-0.885496
0.382080,0.212158,-0.056152,2.458015,-7.824428,-2.534351
0.399902,0.257813,-0.063721,-0.152672,-12.496183,-0.763359
0.382324,0.247559,-0.077637,-0.656489,-10.885496,2.541985
0.359619,0.159668,-0.070801,1.259542,-13.786260,-0.969466
0.289063,0.118164,-0.088623,11.213740,-16.213741,-1.748092
0.261475,0.100098,-0.262939,8.725191,-27.251909,3.351145
0.359863,0.208984,-0.221191,4.045802,-31.801527,3.274809
0.551025,0.272705,-0.075684,0.022901,-43.671757,3.473282
0.727783,0.132080,-0.021240,-11.534351,-46.076336,2.427481
0.816895,0.036133,0.095703,-16.625954,-36.480915,-1.206107
0.860352,0.100342,0.120605,-6.343512,-24.442749,-6.290076
0.853516,0.161865,0.042480,1.030534,-16.343512,-8.893129
0.879395,0.417236,-0.000732,3.839695,-6.175572,-11.351145
0.576660,0.062744,0.399658,-57.427483,-24.099237,85.793892
1.263184,0.177002,0.214111,29.664122,-5.396946,68.717560
1.289795,0.803467,0.392334,-5.106870,10.015267,-19.206106
1.156494,0.917480,0.303711,-30.603054,13.267176,-11.045801
1.984314,1.184814,0.670166,-66.511452,112.343513,-42.992367
1.904785,0.659180,0.729248,-67.625954,155.679382,-61.732826
1.984314,1.100586,0.845703,-50.709923,144.251907,-78.786263
1.984314,1.102295,0.532715,-65.381676,86.549622,-77.992363
1.701660,0.593018,-0.248779,-66.503815,30.076336,-60.351147
1.272461,0.155273,-0.417725,-51.824429,4.045802,-50.129772
0.818115,0.532959,-0.011475,-22.015266,4.839694,-53.923664
0.932861,0.890625,0.263672,-21.801527,5.335878,-9.396947
0.899170,0.695312,0.413330,-1.496183,-7.893130,1.832061
1.019043,0.752441,0.522949,31.549618,-14.778625,24.015266
1.132080,0.689941,0.486084,52.183205,-32.183205,38.190838
1.219482,0.660889,0.411133,49.687023,-54.396946,35.671757
1.230469,0.548340,0.381104,22.503817,-72.839691,39.748093
1.324463,0.506836,0.482910,6.061069,-68.038170,37.053436
1.292236,0.500000,0.396973,-12.053435,-70.427483,5.854962
1.242432,0.417969,0.408936,-11.137404,-35.763359,-9.763359
1.187988,0.353027,0.237793,-0.656489,-8.946565,-5.213740
1.131104,0.379883,0.154053,9.435115,20.458015,-5.793893
1.055420,0.474609,0.040283,23.221375,34.129772,-7.519084
1.056396,0.616699,0.024414,20.473282,35.778625,-1.946565
1.029053,0.676270,-0.219727,0.900763,29.175573,1.969466
1.005127,0.542725,-0.079102,-22.816793,16.137405,4.770992
1.021240,0.406006,0.099121,-17.465649,-7.618320,2.045802
1.080078,0.395264,0.214844,9.870229,-12.458015,-3.488550
1.048096,0.383789,0.201172,38.801525,8.893129,-8.480916
0.957764,0.445312,0.171631,54.572517,24.083969,-4.839694
0.864014,0.595703,0.182129,49.274811,40.396946,-3.053435
0.741943,0.697021,0.093994,22.183207,35.083969,-3.374046
0.625000,0.661377,0.026367,-9.366412,16.068703,-6.549618
0.553467,0.449951,0.095947,-29.709923,-5.236641,-6.832061
0.603271,0.328857,0.234619,-23.328245,-20.702290,-5.954198
0.696289,0.320313,0.257813,-6.167939,-14.717557,-6.198473
0.682373,0.328857,0.196777,9.625955,2.053435,-5.061069
0.589111,0.266602,0.086182,16.068703,10.320611,-2.290076
0.535645,0.270020,0.117676,20.419847,15.587787,-4.954198
0.538086,0.302490,0.107910,18.770992,6.938931,-7.526718
0.615479,0.434082,0.125488,12.656488,4.458015,-10.740458
0.651855,0.479980,0.112793,2.519084,6.633588,-13.335877
0.636475,0.421631,0.157227,-6.923664,7.167939,-13.938931
0.588867,0.298828,0.234375,-7.412214,4.458015,-13.778625
0.563477,0.204834,0.229980,-3.221374,-3.160305,-11.152672
0.572510,0.213867,0.228271,4.374046,-4.816794,-6.877862
0.568848,0.234375,0.151855,8.526717,-5.549618,-0.946565
0.571045,0.229980,0.114990,9.519084,-5.206107,3.458015
0.574951,0.224854,0.151123,15.587787,-1.885496,3.427481
0.567871,0.243896,0.122070,16.664122,-0.954198,2.442748
0.526855,0.244385,0.139893,8.251908,2.412214,5.534351
0.480469,0.243896,0.154785,-9.236641,1.206107,10.312977
0.442871,0.236816,0.132568,-26.946566,-8.671756,12.641221
0.428223,0.174561,0.073486,-35.969467,-23.862595,13.099236
0.450684,0.074463,0.072266,-35.801525,-32.816795,14.832061
0.482422,0.050781,0.064697,-24.381680,-31.511450,17.458015
0.498047,0.056885,0.046387,-14.580153,-24.083969,20.183207
0.461426,0.110352,-0.013184,-10.160305,-18.916031,23.717558
0.413818,0.115967,-0.080078,-13.664123,-21.206106,25.824427
0.421875,0.122803,-0.151611,-23.328245,-33.832062,26.068703
0.546387,0.358643,-0.098389,-28.053434,-35.625954,20.587786
0.725342,0.454102,0.006592,-41.480915,-40.175571,18.809160
0.764160,0.277344,0.095215,-50.633587,-28.763359,17.854961
0.659912,0.062988,0.107178,-38.396946,-14.992367,13.213740
0.678955,0.144043,0.048828,-11.977099,-11.534351,6.068702
0.742920,0.424316,-0.014648,0.083969,-15.442748,4.916030
0.776855,0.558594,0.040527,3.083969,-4.969466,3.183206
0.716797,0.646973,0.123047,4.282443,7.809160,0.770992
0.651855,0.730957,0.226562,-0.877863,-0.366412,1.732824
0.563721,0.956543,0.019043,-46.137405,-15.862596,14.053435
0.801758,0.694336,0.373047,-56.091602,1.847328,114.519081
1.250000,0.766113,0.339600,-53.167938,-11.870229,67.809158
1.800293,0.834961,0.575684,-59.335876,15.938931,-27.893129
1.701172,0.275146,0.615967,-76.396950,133.206100,-20.015266
1.984314,0.486084,0.809814,-73.740456,151.045807,-17.862595
1.984314,0.397949,1.171387,-51.213741,124.908394,-101.229004
1.984314,0.604248,0.153809,-28.572519,36.786259,-115.022903
1.572510,0.427734,-0.472168,-46.114502,5.198473,-61.030533
0.893555,0.401123,-0.350586,-11.404580,-1.992366,-29.534351
0.783691,1.023682,0.046875,26.267176,-12.977099,-22.656488
1.001221,1.006836,0.351074,28.702290,6.068702,29.854961
0.987305,0.865723,0.406250,39.129772,-8.732824,51.251907
1.115967,0.772217,0.468750,39.343510,-35.488548,63.106869
1.280029,0.600586,0.417969,34.664124,-53.167938,70.641220
1.312500,0.564453,0.370605,21.282442,-73.251907,58.603054
1.353271,0.608643,0.394775,2.931298,-81.458015,49.885498
1.327393,0.542236,0.346436,-21.580153,-84.511452,27.000000
1.307617,0.393555,0.403320,-29.648855,-57.396946,12.847328
1.286621,0.349365,0.354736,-12.091603,-13.923664,3.053435
1.164551,0.384766,0.215088,12.503817,11.541985,3.061069
1.086670,0.435059,0.047363,26.152672,25.091602,5.488550
1.060059,0.437744,-0.104980,25.748091,14.114504,6.923664
1.148438,0.444092,-0.039063,17.465649,-0.725191,7.114504
1.263672,0.497803,0.016357,16.145039,-11.603053,4.969466
1.310303,0.536377,0.086426,14.137404,-7.801527,5.007634
1.275391,0.528076,0.199707,36.862595,8.900764,1.641221
1.153320,0.396240,0.095459,42.129772,13.091603,-5.412214
1.018799,0.315186,0.024414,37.786259,15.809160,-15.755725
0.889893,0.227051,0.017578,20.763359,17.343512,-20.221375
0.783936,0.248535,0.077148,0.832061,19.847328,-20.610687
0.687256,0.335938,0.082764,-12.541985,21.320610,-18.847328
0.626953,0.415527,0.048340,-18.366413,17.404581,-17.358778
0.570801,0.389893,0.004150,-21.641222,9.900764,-18.068703
0.515137,0.232666,0.111572,-18.213741,5.404580,-15.396947
0.482666,0.083252,0.302979,0.625954,8.778625,-11.419847
0.490479,0.125488,0.284912,17.725191,16.923664,-6.053435
0.452881,0.300293,0.178223,22.961832,22.366413,-7.091603
0.394531,0.340332,0.086914,11.412213,22.022902,-7.389313
0.353027,0.304443,0.041992,-5.648855,14.290076,-2.839695
0.412842,0.331299,0.072998,-17.358778,0.297710,-7.664122
0.441406,0.208008,0.109863,-20.290077,-10.748092,-7.816794
0.505127,0.070068,0.212646,-14.916031,-2.496183,-1.022901
0.499268,0.021240,0.221436,-1.511450,7.992366,-3.923664
0.437744,0.101318,0.115723,11.251908,13.519084,-7.175572
0.402100,0.169189,0.010254,14.038168,9.328244,-7.145038
0.397217,0.144043,0.071777,10.992367,5.931298,-5.000000
0.401123,0.129150,0.164062,14.083969,4.610687,-2.687023
0.403320,0.168945,0.220459,17.114504,4.251908,-0.351145
0.367432,0.205078,0.184814,13.870229,3.694656,1.740458
0.318359,0.203369,0.155029,2.427481,2.595420,3.511450
0.270752,0.197754,0.119141,-7.725191,-3.671756,5.328244
0.260742,0.185547,0.066406,-15.198473,-17.641222,7.549618
0.302979,0.121582,-0.020264,-22.167938,-32.526718,9.297709
0.375000,0.066650,0.013184,-21.106871,-37.206108,13.419847
0.407471,0.015625,0.036865,-12.557252,-36.587788,14.870229
0.425781,0.016846,-0.011475,-4.885496,-32.977100,15.923664
0.500000,0.256348,0.170898,-2.061069,-23.419847,11.442748
0.645020,0.386230,0.238770,-10.984733,-35.984734,8.839695
0.778564,0.331299,0.165771,-33.977100,-46.083969,5.381680
0.829590,0.246094,0.184326,-41.641220,-39.595421,-0.061069
0.863525,0.221680,0.200439,-31.847328,-35.793892,-4.496183
0.902100,0.653320,-0.065918,-40.755726,-29.816793,-4.030534
0.714600,0.181396,0.611816,-17.549618,-45.305344,98.267174
1.344238,0.347656,0.075195,16.717558,-10.122137,41.786259
1.194824,0.899902,0.337158,0.564885,11.274809,-21.938931
1.117920,0.747559,0.284424,-36.412212,1.175573,5.366412
1.984314,0.743896,0.560791,-69.763359,94.557251,-30.801527
1.520020,0.438232,0.620117,-89.419846,125.305344,-21.938931
1.984314,0.666504,0.876221,-70.458015,132.549622,-49.984734
1.984314,0.773193,0.944092,-45.030533,96.152672,-84.419846
1.984314,0.906982,0.238770,-33.343510,51.557251,-76.816795
1.499512,0.699463,-0.404297,-21.885496,7.236641,-56.030533
1.137939,0.472900,-0.515869,-15.503817,0.854962,-34.366413
0.997314,0.527100,-0.308838,5.114504,-19.992367,-20.961832
1.132080,0.797363,0.323730,20.450382,-6.671756,6.251908
0.974121,0.827148,0.455566,26.343512,-29.748091,30.885496
1.088867,0.660400,0.517822,26.664122,-49.114502,39.000000
1.134277,0.565918,0.444092,28.167938,-72.816795,36.595421
1.160156,0.438721,0.350098,15.977099,-82.236641,34.183205
1.140381,0.361084,0.256348,-1.137405,-77.839691,23.030535
1.062256,0.228760,0.223877,-14.931297,-71.229004,-2.587786
0.876465,0.072021,0.286377,-9.511451,-51.717556,-17.961832
0.777588,0.038330,0.230225,-0.083969,1.022901,-15.954199
0.654785,0.169922,0.076172,0.465649,20.786259,-8.488549
0.509277,0.275635,0.017090,-2.664122,31.328245,-11.114504
0.418457,0.336670,-0.010742,-6.061069,20.564886,-4.213740
0.448242,0.437988,-0.044189,-5.328244,4.984733,1.992366
0.542969,0.399414,-0.006348,-7.541985,-4.618320,3.519084
0.614990,0.346924,0.108887,-4.343512,-3.473282,5.167939
0.664307,0.411621,0.137451,-3.251908,-8.198473,5.038168
0.791992,0.385010,0.185303,-10.366412,-11.396947,10.679389
0.913818,0.346436,0.212158,-15.786260,-11.893129,5.091603
0.976807,0.348633,0.261963,-16.244274,-6.770992,-1.358779
0.964355,0.418213,0.221680,-12.480916,-0.496183,-2.641221
0.945801,0.442871,0.179199,-8.251908,3.374046,2.190840
0.938232,0.408447,0.185547,-4.564886,6.885496,4.473282
0.950928,0.395508,0.177246,3.045802,4.320611,9.007633
1.063721,0.455811,0.185303,10.259542,-3.343511,7.099236
1.217285,0.509521,0.239014,14.862596,-8.198473,1.114504
1.389893,0.575439,0.276367,11.137404,0.984733,-2.732824
1.451660,0.694580,0.260010,5.664122,13.526717,-10.244275
1.403320,0.741943,0.299072,7.572519,12.984733,-9.541985
1.389160,0.725586,0.301514,13.870229,0.389313,-3.923664
1.436279,0.668945,0.265869,23.030535,-12.832061,0.183206
1.500977,0.619873,0.262695,36.847328,-10.778625,1.847328
1.488770,0.549805,0.285645,49.755726,7.862596,-1.007634
1.338135,0.477295,0.315186,64.083969,29.946566,-1.916031
1.179932,0.496094,0.268066,72.969467,39.267174,-0.419847
1.078369,0.506104,0.180420,68.877861,31.427481,-0.274809
1.010742,0.486572,0.187012,50.450382,22.702290,0.335878
0.958008,0.477539,0.198242,35.206108,15.656488,-0.541985
0.927490,0.480957,0.133301,20.572519,8.175572,0.961832
0.882324,0.465088,0.045410,4.030534,5.832061,1.160305
0.807861,0.378662,0.027832,-8.274809,5.763359,3.000000
0.736572,0.259766,0.031738,-18.267176,3.633588,5.389313
0.680176,0.218506,0.070557,-18.977098,6.137404,6.992366
0.655762,0.281982,0.053223,-19.618320,3.832061,10.297709
0.667236,0.341797,0.065674,-27.259542,-1.099237,13.679389
0.622070,0.285645,0.113525,-35.267174,5.465649,12.893129
0.533936,0.158447,0.159180,-40.435116,10.618320,12.229008
0.437012,0.007568,0.191650,-40.709923,10.801527,9.694656
0.336426,-0.205811,0.296875,-37.320610,13.267176,9.610687
0.244385,-0.237793,0.274658,-16.992367,12.969465,13.854961
0.242187,-0.027344,0.133057,13.374045,9.748092,17.106871
0.295166,0.201172,0.024902,29.320610,8.580153,15.610687
0.292725,0.336182,0.009766,27.015266,17.145039,16.366413
0.229248,0.352051,0.010254,12.091603,21.511450,19.076336
0.153076,0.240723,0.062988,-6.206107,14.374045,16.549618
0.079834,0.065430,0.172607,-15.786260,4.366412,12.160305
0.040039,-0.025879,0.158447,-12.038168,-7.618320,11.229008
0.028564,-0.048828,0.060059,-9.114504,-17.244274,13.000000
0.055176,0.020996,-0.008301,-2.541985,-20.511450,22.045801
0.072266,0.069824,-0.102783,-0.954198,-20.992367,23.809160
0.027100,0.113037,-0.159668,1.854962,-18.229008,24.053434
0.003906,0.297119,-0.352295,4.320611,-24.458015,22.160305
0.119385,0.493164,-0.213867,-7.748092,-48.122139,20.167938
0.351563,0.415771,-0.151611,-32.480915,-76.129768,19.335878
0.536133,0.234863,-0.141602,-52.358780,-66.480919,11.961832
0.701416,0.239502,-0.152100,-38.007633,-62.679390,7.793893
0.896484,0.309814,-0.239990,-25.137405,-65.450378,-6.053435
1.124023,0.382080,0.023437,-18.717558,-65.847328,0.534351
0.954834,0.239990,0.406982,-136.374039,-77.183205,122.793892
1.984314,0.111572,1.183105,-33.961834,42.870228,75.709923
1.984314,-0.566406,1.073486,-21.099237,213.984726,-128.572525
1.984314,0.718018,1.375732,22.213741,95.969467,-86.938934
1.984314,0.870605,1.382324,-29.519083,95.931297,-142.954193
1.984314,1.182861,0.335205,-49.297710,25.015266,-80.511452
1.250488,0.717285,-0.440186,-45.496181,-3.015267,-36.534351
0.482910,0.687256,-0.335938,22.068703,33.083969,21.213741
0.697021,1.598389,-0.581543,48.435116,-2.709924,6.007634
1.086914,1.264160,0.299561,33.664124,-1.389313,41.610687
1.200928,0.755371,0.285645,16.564886,-8.549619,81.183205
1.339844,0.481201,0.330811,10.480916,-34.809162,82.206108
1.466553,0.458252,0.348877,4.549618,-59.396946,68.763359
1.528564,0.463135,0.275146,-5.541985,-85.259544,34.488548
1.447021,0.281006,0.386475,-22.000000,-86.564888,9.053435
1.470703,0.127686,0.505615,-28.396946,-48.480915,-0.374046
1.391846,0.094971,0.394531,-10.961832,0.671756,-12.511451
1.225830,0.182861,0.271484,17.564886,29.465649,-15.129771
1.080078,0.332031,0.178467,43.870228,42.480915,-12.000000
1.005859,0.481689,0.061279,54.641220,36.847328,-4.358778
0.996582,0.586182,0.062988,52.702290,25.740458,2.618321
1.012207,0.585205,0.034180,43.167938,10.030535,3.358779
1.042480,0.484619,0.072266,28.488550,3.671756,-3.396947
1.084229,0.332764,0.103760,19.244274,-13.389313,-7.839694
1.162842,0.158691,0.077881,9.091603,-19.282442,-10.809160
1.209229,0.217285,0.226807,22.610687,-3.175573,-15.412213
1.159424,0.235596,0.101807,33.877861,17.038168,-20.824427
1.041748,0.237793,0.091309,26.496183,32.908398,-19.610687
0.892090,0.297607,0.056885,12.755725,34.954197,-15.854961
0.776123,0.411621,-0.066895,7.297710,23.610687,-17.671755
0.720215,0.421631,-0.009277,4.213740,11.053435,-21.900763
0.686523,0.346680,0.038818,9.030535,3.801527,-20.160305
0.662109,0.271484,0.128662,14.274809,8.351145,-16.679390
0.639404,0.225586,0.234863,19.458015,14.923664,-13.885496
0.602783,0.249023,0.302734,22.946566,22.038168,-14.595420
0.552002,0.254639,0.295654,15.900764,24.389313,-16.038168
0.495117,0.243652,0.212646,0.389313,19.564886,-13.847328
0.473389,0.243896,0.200684,-11.946565,8.496183,-10.030535
0.502197,0.173096,0.170654,-14.251908,-3.916031,-3.290076
0.567139,0.135254,0.228027,-6.572519,-3.244275,1.992366
0.595459,0.122314,0.287354,6.900764,9.435115,2.786260
0.541016,0.155518,0.305664,15.099236,24.106871,-0.442748
0.437256,0.211426,0.237793,10.618320,29.961832,-3.427481
0.365723,0.244873,0.136230,-4.740458,20.679390,-4.458015
0.363281,0.243652,0.008301,-22.351145,-1.564885,-3.801527
0.451904,0.233154,-0.055176,-26.885496,-22.984734,-0.335878
0.555420,0.162842,-0.006836,-15.603053,-25.129770,2.404580
0.568848,0.072754,0.128418,5.954198,-9.259542,5.038168
0.464844,0.095215,0.269531,29.305344,12.572519,8.251908
0.309570,0.189697,0.259277,34.595421,22.328245,10.312977
0.197998,0.301270,0.047119,11.488549,14.061069,8.816793
0.166992,0.374023,-0.092041,-24.022902,-9.877863,8.175572
0.256348,0.268311,-0.195312,-48.648853,-45.152672,4.931298
0.423584,0.194580,-0.116699,-43.511452,-60.213741,4.541985
0.562012,0.161621,-0.081055,-19.557251,-51.290077,6.381680
0.562256,0.152344,-0.125732,4.473282,-24.687023,7.656488
0.404541,0.157715,-0.189453,14.496183,0.412214,7.511450
0.204346,0.197998,-0.339844,4.488550,1.251908,7.793893
0.092773,0.279297,-0.540283,-14.908397,-23.893129,5.061069
0.171387,0.407471,-0.773437,-42.709923,-66.396950,-2.625954
0.556396,0.626465,-0.201660,-43.038166,-100.603050,-10.152672
1.094971,0.346191,0.059082,-36.709923,-135.923660,-11.022901
1.477783,0.198975,0.295654,-11.786260,-104.274811,-10.656488
1.562744,0.402588,0.446777,24.694656,-21.900763,-18.045801
1.273193,0.468994,0.191406,22.419847,3.908397,-10.519084
1.024658,0.751465,0.233643,-26.572519,9.511451,9.549619
0.843994,0.005371,1.229492,-41.946564,21.198473,131.702286
1.270020,-0.029053,1.165771,-8.572519,17.496183,59.236641
1.059082,0.357178,1.130859,-8.755725,-14.328244,-22.267176
1.566406,0.558350,1.052002,-21.847328,-6.229008,-7.885496
1.984314,0.617676,0.779541,-46.587788,110.755722,-36.267174
1.582031,0.680420,0.671143,-35.374046,105.145035,-3.572519
1.984314,0.891846,0.468994,-20.083969,85.312981,-42.709923
1.984314,0.812256,0.149414,1.526718,44.801525,-38.435116
1.874756,0.792725,-0.324951,4.312977,6.297710,-21.709923
1.526611,0.631104,-0.676270,21.076336,-24.374046,-15.557252
1.207764,0.504395,-0.632080,16.664122,-35.145039,-6.251908
1.094482,0.483643,-0.222656,6.503817,-25.022902,11.083969
1.121094,0.526123,0.055176,13.404580,-18.328245,28.396946
1.222656,0.494385,0.255615,8.618320,-27.244274,34.450382
1.357910,0.404053,0.386963,6.236641,-43.687023,28.015266
1.486816,0.363281,0.463867,3.358779,-57.221375,14.259542
1.553955,0.476562,0.439941,-9.343512,-69.320610,-14.083969
1.483398,0.489502,0.513428,-15.305344,-67.687019,-20.671755
1.493652,0.507080,0.540283,-4.656488,-14.648855,-7.236641
1.382813,0.479248,0.386719,15.427481,30.106871,8.534351
1.199219,0.442383,0.311035,29.931297,53.061069,14.435115
1.049072,0.454590,0.219971,35.106869,54.465649,11.984733
1.004395,0.506592,0.102783,25.702290,34.694656,7.847328
1.046631,0.507080,0.002441,7.839694,13.206107,4.335878
1.086914,0.424805,-0.142822,-7.267176,3.351145,-1.236641
1.096436,0.369141,-0.205078,-7.809160,3.229008,-3.793893
1.065918,0.340576,-0.142090,6.358778,20.335878,-5.778626
0.957275,0.316162,-0.016846,19.984734,37.297710,-4.183206
0.806885,0.305664,-0.013672,28.000000,39.297710,-3.053435
0.716309,0.306885,0.056641,24.442749,31.709923,-4.206107
0.676270,0.346436,0.059082,22.984734,20.038168,-8.488549
0.687500,0.315918,0.055176,22.251909,8.450381,-11.862596
0.730225,0.277832,0.097656,21.809160,8.702291,-12.045801
0.724121,0.302979,0.105713,22.648855,25.786259,-11.603053
0.653320,0.352539,0.098633,13.015267,31.068703,-8.412213
0.566650,0.356201,0.065918,1.977099,28.618320,-7.541985
0.506836,0.253174,0.106934,-7.030534,19.587786,-8.167939
0.496094,0.166504,0.134033,-8.221375,7.763359,-8.931297
0.531006,0.130615,0.179199,-1.137405,5.427481,-7.755725
0.568359,0.130127,0.157471,5.244275,9.648855,-5.274809
0.559326,0.142090,0.098389,9.519084,14.267176,-3.122137
0.540283,0.133545,0.088135,13.648855,15.740458,-0.763359
0.525635,0.165283,0.071289,15.870229,14.832061,-0.068702
0.515137,0.245117,0.006104,17.145039,12.969465,-0.534351
0.504883,0.268799,-0.007813,13.664123,11.312977,-2.671756
0.460205,0.198975,0.089844,9.770992,15.740458,-4.167939
0.385498,0.139404,0.110840,10.068703,17.656488,-4.885496
0.304932,0.106689,0.116943,12.419847,17.549618,-3.740458
0.252197,0.100342,0.040527,12.709924,8.190840,-0.412214
0.254639,0.113770,0.006104,11.129771,-3.938931,3.412214
0.313232,0.188965,-0.011719,10.145039,-13.419847,5.190840
0.375244,0.252930,-0.050537,6.679389,-18.946566,6.274809
0.393555,0.226318,-0.057373,0.366412,-17.549618,8.053435
0.356689,0.187500,-0.045166,-1.694656,-14.381680,9.610687
0.299316,0.170898,-0.048340,0.007634,-16.404581,9.694656
0.263428,0.162354,-0.027832,2.435115,-22.694656,11.618320
0.260010,0.141602,-0.052246,1.870229,-28.061069,13.519084
0.287842,0.182373,-0.170410,-8.557252,-31.244274,13.725191
0.455078,0.514160,0.106445,-10.305344,-32.122139,8.893129
0.705322,0.486328,0.093506,-17.816793,-58.572517,6.038168
0.843994,0.204834,0.078857,-29.297710,-49.893131,3.259542
0.865479,0.099854,0.048828,-31.282442,-34.335876,6.030534
0.899414,0.176758,0.101563,-10.099236,-20.916031,-0.778626
0.942383,0.295898,0.185547,-2.717557,-13.320611,-1.801527
0.644287,0.577881,0.302979,-110.068703,-0.358779,64.709923
1.282959,0.406006,0.610352,-4.038168,39.083969,120.038170
1.468994,0.632812,0.543701,-32.770992,-12.732824,12.618320
1.984314,1.023438,1.017578,-39.068703,26.488550,-71.801529
1.984314,0.690918,0.923096,-59.839695,180.717560,-68.648857
1.984314,1.129150,0.955078,-49.969467,154.816788,-40.167938
1.984314,0.686523,0.489990,-17.000000,53.000000,-53.809162
1.657227,0.637695,-0.532471,8.244275,-31.755726,-41.732826
1.219727,0.452393,-0.345947,24.519083,-36.244274,-19.763359
0.907471,0.714844,0.001221,41.167938,-39.190838,-2.160305
1.124512,1.011963,0.142090,43.916031,-32.297710,30.236641
1.238037,0.929687,0.210937,18.633587,-36.618320,60.442749
1.371582,0.603027,0.318848,-5.465649,-41.358780,66.396950
1.499023,0.409180,0.270752,-17.633587,-71.709923,18.129770
1.516602,0.165283,0.347412,-25.381680,-97.229004,-20.282442
1.596191,0.068848,0.425049,-24.015266,-68.335876,-21.900763
1.645020,0.123779,0.474854,-3.885496,-3.358779,-14.618320
1.472412,0.285889,0.426025,28.091602,50.114502,-7.496183
1.220459,0.506104,0.344971,53.587788,73.893127,-3.664122
1.020264,0.681152,0.262207,56.793892,67.503815,0.541985
0.918945,0.775879,0.191162,39.709923,45.908398,4.320611
0.891846,0.730225,0.067871,14.061069,17.022902,5.656488
0.945312,0.589600,0.060791,-1.900763,0.931298,-1.412214
0.998291,0.369141,0.043701,-4.732824,-7.847328,-9.732824
1.021484,0.184570,-0.008545,5.000000,-3.022901,-14.129771
1.006592,0.091797,-0.029541,16.923664,13.725191,-13.412213
0.931885,0.109375,-0.031982,26.603054,28.938931,-13.534351
0.837891,0.204102,0.006348,30.641222,37.473282,-13.053435
0.767090,0.364990,0.057129,26.786259,40.061069,-14.190840
0.701904,0.503174,0.069580,15.801527,34.587788,-17.038168
0.656494,0.507812,0.117920,1.442748,26.198473,-18.610687
0.610107,0.381592,0.102051,-9.923664,14.312977,-19.534351
0.598633,0.260742,0.110107,-7.923664,4.259542,-17.778625
0.614990,0.204590,0.175049,5.419847,6.374046,-14.732824
0.589111,0.194580,0.197510,20.549618,16.893129,-9.816793
0.537109,0.266846,0.162842,27.190840,22.916031,-5.541985
0.479492,0.320068,0.122559,23.381680,23.725191,-3.595420
0.449463,0.318848,0.100830,8.893129,16.419847,-4.030534
0.431152,0.292480,0.090820,-6.206107,6.984733,-5.610687
0.445068,0.259033,0.089355,-16.038168,-1.824427,-4.786260
0.495117,0.265137,0.055664,-23.366413,-8.106871,-2.954198
0.510254,0.237305,0.068359,-23.694656,-6.030534,-3.664122
0.474121,0.133301,0.136230,-20.305344,-1.603053,-4.633588
0.405273,0.064209,0.160889,-11.259542,0.496183,-4.465649
0.367432,0.081299,0.150879,1.419847,-0.580153,-4.900764
0.358398,0.101563,0.151367,10.114504,-3.389313,-4.763359
0.360107,0.129883,0.169189,11.038168,-3.809160,-2.671756
0.351563,0.176270,0.152100,5.954198,-2.374046,0.557252
0.327148,0.197266,0.105713,-4.633588,-4.709924,1.000000
0.291504,0.170654,0.069824,-14.938931,-11.984733,1.160305
0.275879,0.096924,0.071289,-18.648855,-18.145039,1.564885
0.273682,0.055908,0.052002,-14.870229,-23.519083,3.335878
0.291992,0.085205,-0.004883,-7.190840,-30.198473,5.656488
0.321289,0.122314,-0.028320,-2.854962,-36.274811,9.328244
0.336426,0.140381,-0.033447,-1.175573,-37.580154,14.328244
0.353516,0.169678,-0.042725,-0.198473,-38.717556,18.335878
0.364746,0.153564,-0.191895,-2.870229,-45.061069,19.473282
0.488525,0.389648,-0.238770,-8.320611,-44.877861,10.603053
0.778809,0.555420,-0.002930,-19.458015,-67.442749,7.511450
1.095947,0.385254,0.043701,-37.702290,-81.183205,8.541985
1.212646,0.124756,-0.036865,-53.931297,-63.229008,0.343511
1.297363,0.136230,0.206055,-32.862595,-47.335876,-8.824428
1.387451,0.284180,0.229004,6.824428,-38.549618,-20.832062
1.356445,0.842285,0.141113,-11.832061,-10.053435,-10.961832
1.307373,0.485840,0.715576,15.549619,34.229008,80.580154
1.481689,0.580566,0.357178,23.122137,34.183205,26.572519
1.221924,0.983154,0.410400,-14.648855,18.038168,-39.793892
1.423584,0.971924,0.403809,-40.931297,26.442749,-15.351145
1.866943,0.801758,0.233887,-41.809162,98.320610,-28.038168
1.346191,0.609619,0.261475,-38.801525,111.526718,-29.641222
1.738770,0.683105,0.398926,-33.251907,110.335876,-54.000000
1.984314,0.772217,0.369141,-24.206106,81.832062,-74.122139
1.854492,0.831299,-0.054199,-35.931297,38.290077,-54.206108
1.581055,0.350098,-0.231201,-29.229008,1.137405,-12.221375
1.036377,0.331787,0.102051,9.076336,-17.519083,-22.832062
0.802246,0.814941,0.297363,35.274811,-23.893129,-6.328244
0.884277,0.825684,0.490234,57.282444,-22.267176,27.374046
1.005859,0.828369,0.457275,54.809162,-31.694656,50.091602
1.178467,0.720947,0.413086,37.992367,-49.251907,61.557251
1.372803,0.625488,0.373047,9.793893,-61.396946,60.137405
1.488525,0.593262,0.301025,-9.076336,-75.755722,26.419847
1.447754,0.443115,0.377441,-21.259542,-73.641220,2.801527
1.428467,0.367188,0.391846,-19.519083,-31.267176,6.419847
1.364746,0.447021,0.383789,-2.473282,-3.000000,14.931297
1.281494,0.531738,0.356445,17.038168,23.893129,21.641222
1.161377,0.582764,0.189209,31.404581,35.038166,23.106871
1.086914,0.537842,0.009766,27.854961,28.167938,12.358779
1.065674,0.418945,-0.065186,17.366413,14.137404,-0.091603
1.146484,0.401367,-0.081299,13.282443,4.045802,-9.625955
1.223633,0.376953,-0.109619,5.335878,2.351145,-15.610687
1.245850,0.364990,0.073486,8.847328,19.740458,-13.137404
1.119141,0.338867,0.058594,19.290077,36.832062,-11.351145
0.928955,0.303467,0.020264,26.152672,43.755726,-12.167939
0.749023,0.300781,-0.039795,26.755726,41.091602,-14.786260
0.604492,0.311768,-0.078369,22.236641,35.458015,-15.862596
0.527588,0.314697,-0.041992,14.083969,28.687023,-12.129771
0.531006,0.339844,0.016357,7.557252,20.832062,-9.618320
0.574951,0.323975,0.074463,-1.717557,15.809160,-7.290076
0.626709,0.334229,0.121826,-4.786260,15.755725,-7.748092
0.641113,0.337402,0.162842,-5.160306,18.496183,-8.641221
0.626221,0.335938,0.171143,-5.503817,23.061069,-7.679389
0.567627,0.273926,0.190918,-11.564885,29.190840,-5.977099
0.510742,0.233398,0.192627,-16.458015,28.687023,-4.106870
0.496826,0.260986,0.142090,-17.099237,20.656488,-3.931298
0.524902,0.268311,0.096191,-17.725191,15.099236,-2.320611
0.559570,0.235840,0.058594,-17.793894,11.641221,1.000000
0.598633,0.211182,0.063721,-12.984733,12.748092,2.450382
0.605713,0.178223,0.083252,-6.961832,14.687023,0.282443
0.574463,0.152344,0.103027,-2.038168,18.053434,-3.083969
0.517578,0.118652,0.150879,0.244275,21.213741,-3.648855
0.480225,0.121582,0.189697,4.083970,19.404581,-3.480916
0.464355,0.180664,0.134521,8.381680,16.000000,-4.190840
0.460937,0.215820,0.129883,5.938931,12.664123,-2.534351
0.442627,0.215332,0.122070,0.954198,8.725191,2.091603
0.425049,0.219971,0.127930,-1.267176,4.145038,5.145038
0.399170,0.231201,0.134277,2.267176,0.183206,6.053435
0.370850,0.215576,0.084961,4.893130,-4.358778,7.610687
0.336182,0.226074,0.096680,5.923664,-4.709924,9.916031
0.296143,0.236328,0.057617,4.938931,-8.068703,11.854961
0.251465,0.212158,0.013184,-0.992366,-13.473283,13.183207
0.222168,0.144775,0.002197,-9.312977,-21.786259,16.206106
0.239014,0.104980,0.029053,-11.809160,-31.381680,18.893129
0.273926,0.070557,0.020020,-7.396946,-40.480915,18.793894
0.314209,0.085693,-0.063721,2.305344,-44.938931,18.923664
0.427979,0.297119,0.051025,11.847328,-38.022900,14.541985
0.624756,0.583984,0.365479,22.435114,-35.435116,9.916031
0.817871,0.572998,0.216064,8.068703,-55.679390,13.152672
0.982666,0.452637,0.330566,-20.267176,-44.274811,13.427481
1.025879,0.423340,0.375488,-30.702290,-41.274811,14.839695
1.082031,0.472412,0.574951,-22.129770,-31.610687,4.793893
0.768555,0.788574,0.297607,-122.343513,-32.206108,45.687023
1.338623,0.363281,0.551514,10.496183,-9.267176,103.702293
1.380615,0.468018,0.428955,-44.832062,-25.931297,27.633587
1.285400,0.442627,0.520264,-45.709923,-20.229008,11.083969
1.504395,0.269775,0.697510,-60.267174,-10.717557,39.503819
1.984314,0.572021,0.646729,-62.496181,2.244275,8.564885
1.984314,0.384033,0.451172,-21.374046,154.885498,-92.053436
1.909180,0.714600,0.088867,23.755726,77.236641,-61.419846
1.910400,0.800049,-0.426270,-0.312977,21.160305,-61.694656
1.519287,0.566650,-0.498291,6.847328,-11.412213,-26.938931
1.171875,0.504395,0.192627,22.198473,5.984733,-10.488549
0.946533,0.767090,0.267822,43.832062,-2.320611,21.175573
1.215576,1.012939,0.224609,43.679390,-15.045801,55.580154
1.467529,1.037842,0.131836,9.076336,-32.122139,49.068703
1.483154,0.746582,0.177246,-26.000000,-32.419846,22.312977
1.403564,0.253906,0.209717,-46.877861,-36.061069,10.412213
1.432861,0.002686,0.367676,-35.572517,-28.885496,-1.435115
1.476318,-0.072510,0.364990,-19.687023,-12.320611,-6.297710
1.419922,0.137207,0.521240,10.580153,22.183207,-2.000000
1.310059,0.471191,0.417480,59.473282,57.862595,-6.709924
1.103516,0.682861,0.053711,72.007637,59.534351,-5.541985
0.943359,0.700684,0.024414,56.809162,52.709923,-2.007634
0.884277,0.641113,0.056396,31.977098,25.648855,-2.053435
0.967041,0.604004,0.219238,9.473283,0.007634,-9.816793
1.084229,0.473145,0.323486,-8.114504,-9.564885,-11.893129
1.144531,0.304932,0.425537,-11.312977,-3.183206,-10.961832
1.102295,0.138672,0.438232,-1.786260,10.847328,-13.992367
1.001221,0.111572,0.420898,16.572519,24.816793,-16.480917
0.905273,0.215576,0.334229,28.946566,33.687023,-18.137405
0.808350,0.320068,0.167969,25.824427,32.343510,-16.305344
0.735352,0.378662,0.092041,18.137405,26.748091,-13.465649
0.717773,0.400391,0.136475,13.358779,22.427481,-13.068703
0.727295,0.459717,0.211670,11.145039,24.465649,-15.893129
0.718750,0.513916,0.196289,4.511450,26.664122,-16.847328
0.667236,0.535889,0.186279,-5.671756,29.984734,-16.732824
0.562988,0.428955,0.224365,-17.412214,34.549618,-17.129770
0.437744,0.256348,0.248535,-25.412214,32.885498,-16.664122
0.357178,0.160645,0.186279,-25.870230,21.885496,-14.900764
0.361328,0.132568,0.135986,-22.022902,10.625955,-12.099236
0.427490,0.105713,0.075439,-18.496183,1.496183,-6.961832
0.509277,0.074463,0.012695,-12.450381,0.931298,-4.160306
0.588135,0.135986,0.049072,2.374046,8.145039,-7.465649
0.597412,0.191895,0.079834,12.259542,17.053434,-12.419847
0.522705,0.224365,0.105225,14.290076,23.793894,-12.473283
0.420410,0.204834,0.121826,5.938931,24.160305,-11.236641
0.347168,0.144531,0.115234,-1.885496,14.709924,-10.893129
0.330078,0.130859,0.047607,-1.809160,0.465649,-10.503817
0.381836,0.132812,-0.056396,2.610687,-10.564885,-7.305344
0.459229,0.158447,-0.092041,8.778625,-13.251908,-2.580153
0.473633,0.148926,-0.049561,16.541985,-6.015267,2.511450
0.411621,0.134033,-0.018555,23.816793,-0.076336,6.633588
0.337402,0.116699,-0.019775,26.267176,-3.038168,7.274809
0.277832,0.051025,-0.007324,19.687023,-12.328244,7.603054
0.251465,0.017822,-0.067383,11.786260,-25.053434,9.206107
0.280029,0.020264,-0.120361,8.007633,-37.236641,9.564885
0.341309,0.020996,-0.086670,10.389313,-46.282444,9.236641
0.374023,-0.037109,-0.036621,17.183207,-48.526718,12.709924
0.372559,-0.058594,-0.027588,26.137405,-45.687023,17.099237
0.341064,-0.014893,-0.032471,32.412212,-44.083969,17.732824
0.267578,-0.011475,-0.019775,30.305344,-44.679390,20.290077
0.185791,-0.068359,-0.258057,15.793893,-52.992367,28.045801
0.284912,0.421631,0.180664,10.801527,-29.900763,21.335878
0.481934,0.826904,0.393066,29.213741,-42.969467,9.854961
0.687012,0.555664,-0.019775,-13.793893,-81.099236,4.992366
0.781250,0.208740,0.039307,-34.480915,-59.770992,14.083969
0.735840,1.081543,-0.161621,-147.312973,-47.312977,32.206108
1.253418,0.244141,1.278809,99.236641,-28.045801,127.335876
1.805664,1.067627,0.829102,82.389313,1.022901,7.557252
1.984314,1.984314,0.834473,54.198475,36.748093,-45.061069
1.984314,1.654785,0.834473,-90.488548,187.358780,-80.412216
1.984314,1.068848,1.293945,-104.412216,164.366409,2.251908
1.984314,0.211914,0.974121,-44.183205,108.190842,-56.122139
1.984314,0.212402,-0.121094,11.938931,-29.870230,-79.519081
1.284912,0.186768,-0.336670,2.748092,-52.587788,-55.106869
0.806641,0.112305,-0.147461,-2.068702,-34.030533,-20.091602
1.064697,0.330078,-0.211914,19.496183,-51.022900,-6.503817
1.255127,0.806396,0.309814,40.748093,-35.503819,-6.458015
1.018311,0.793945,0.337158,36.030533,-45.175571,32.679390
0.984619,0.559326,0.312744,8.282443,-60.450382,22.862595
1.161621,0.344727,0.300293,2.320611,-85.656487,-0.221374
1.144775,0.259033,0.350586,-9.778625,-88.175575,-32.053436
1.027588,0.130615,0.367676,-13.450381,-53.839695,-37.541985
0.857910,0.091064,0.274658,-3.450382,-5.755725,-39.160305
0.600586,0.153320,0.143066,16.809160,17.450382,-36.755726
0.371338,0.322754,-0.023437,20.305344,29.557251,-31.229008
0.248535,0.432861,-0.177979,7.740458,13.061069,-14.893129
0.374756,0.530029,-0.211182,3.656489,-12.641221,4.916030
0.647217,0.622803,-0.142090,5.961832,-26.450382,12.587787
0.902588,0.640869,-0.036133,4.076336,-24.702290,13.916031
1.091064,0.577148,0.100342,-5.832061,-13.091603,9.824428
1.138428,0.370361,0.184570,-15.854961,-11.389313,-5.541985
1.097168,0.195068,0.284424,-8.832061,-8.480916,-13.610687
1.029541,0.302734,0.272705,1.274809,4.618320,-17.671755
0.906006,0.465332,0.160156,1.374046,11.328244,-16.496183
0.838623,0.519531,0.089844,-2.435115,9.015267,-9.099236
0.837158,0.565918,0.079834,-9.954199,7.305344,-3.534351
0.892090,0.539551,0.128418,-12.282443,1.335878,1.770992
1.029297,0.433594,0.166992,-8.648855,-3.007634,7.015267
1.179688,0.440918,0.233887,8.297709,0.351145,1.167939
1.288330,0.541992,0.259766,26.847328,8.832061,-3.076336
1.391602,0.674072,0.284180,39.534351,15.076336,-0.992366
1.450195,0.835449,0.277344,36.732826,26.198473,4.122138
1.415039,0.938232,0.278076,25.572519,28.900763,9.740458
1.302490,0.886230,0.302246,25.022902,23.282442,14.511451
1.215332,0.777832,0.275391,38.183205,9.290076,17.458015
1.214111,0.694580,0.195312,52.770992,2.893130,10.419847
1.187500,0.602051,0.126953,59.351147,11.122137,0.580153
1.129395,0.586426,0.156006,61.954197,25.190840,-1.977099
1.030273,0.599854,0.008545,59.366413,31.251909,-0.664122
0.959229,0.569580,-0.156006,37.259541,23.419847,1.755725
0.908691,0.544678,-0.180908,13.770992,18.106871,2.870229
0.894775,0.518066,-0.157471,0.389313,11.748092,4.030534
0.875244,0.447021,-0.145752,-14.389313,7.618320,5.320611
0.816650,0.347412,-0.073242,-19.992367,11.083969,4.290076
0.708496,0.205322,-0.006836,-21.854961,13.450381,2.190840
0.594727,0.095947,0.075439,-22.251909,13.473283,2.267176
0.530762,0.111816,0.204102,-19.206106,16.908398,6.396946
0.495850,0.238770,0.058838,-23.137405,13.786260,10.648855
0.488770,0.280518,-0.058105,-43.618320,1.618321,16.923664
0.515625,0.215576,-0.097412,-59.534351,-11.618320,19.641222
0.572266,0.137451,-0.043701,-61.175571,-21.702290,19.259542
0.597900,0.070312,0.052490,-47.465649,-15.519084,16.870230
0.520264,-0.028564,0.195557,-25.030535,4.442748,15.519084
0.368896,-0.104736,0.257080,0.427481,25.213741,16.633587
0.214600,-0.061523,0.246582,20.938931,36.061069,18.213741
0.108643,0.116211,0.128174,26.450382,31.152672,17.900763
0.079834,0.271484,-0.028320,12.580153,8.190840,18.664122
0.115723,0.260010,-0.023437,-7.236641,-10.099236,20.259542
0.159668,0.135254,0.077637,-11.549619,-16.137405,20.625954
0.171143,0.075195,0.128662,2.244275,-13.007633,16.977098
0.142090,0.063965,0.127930,15.290076,-2.893130,17.038168
0.058594,0.104248,0.035156,13.106871,6.175572,20.351145
-0.048340,0.160156,-0.085205,2.221374,9.259542,21.839695
-0.088623,0.227783,-0.383057,-17.137405,-14.305344,17.198473
0.083008,0.237305,-0.047607,-28.618320,-63.015266,16.694656
0.399658,0.284912,0.060791,-22.755726,-87.778625,13.648855
0.636230,0.315918,0.054932,-21.374046,-63.572517,10.977099
0.701172,0.365967,-0.302979,-46.374046,-40.053436,21.442749
0.717285,0.364014,-0.352295,-59.870228,-32.496181,18.221375
0.800049,0.979004,-0.611328,-112.854965,-55.977100,21.129770
0.909180,-0.198730,0.604492,-39.198475,-88.076332,152.992371
1.802734,-0.022461,0.298828,-36.839695,-96.809158,81.076332
1.984314,0.599121,0.926270,-37.297710,179.984726,-137.122131
1.984314,0.220703,1.115234,-20.435114,166.259537,4.564886
1.984314,0.627686,1.241943,-52.282444,143.427475,-72.053436
1.984314,0.584961,0.891357,-8.412213,50.473282,-102.282440
1.703613,0.948242,-0.350830,-5.290076,-8.007633,-77.213737
0.998047,0.946045,-0.385742,5.236641,-14.213740,-23.297710
0.603027,1.070068,0.083740,51.068703,2.236641,22.916031
0.834229,1.298584,0.243164,73.122139,-27.236641,47.755726
1.174805,1.107666,0.271973,35.763359,-47.061069,68.931297
1.318848,0.787354,0.267578,2.137405,-59.106869,90.702293
1.534668,0.535889,0.170166,-20.870230,-88.114502,42.664124
1.616455,0.069092,0.202148,-48.030533,-122.251907,-5.862596
1.643799,-0.225830,0.344971,-52.091602,-91.496185,-22.877863
1.602295,-0.264648,0.403809,-39.045803,-37.122139,-23.488550
1.470703,-0.023193,0.403564,10.312977,47.053436,-24.389313
1.162354,0.357910,0.219482,57.320610,85.671753,-13.213740
0.906494,0.686035,0.063965,74.725189,86.709923,4.847328
0.764648,0.830811,-0.069092,62.076336,44.587788,24.450382
0.818848,0.905273,0.123047,30.145039,32.748093,16.946566
0.845459,0.659180,0.077637,-4.000000,-5.045802,3.793893
0.979980,0.344238,0.101807,-24.885496,-27.717558,-4.030534
1.134766,0.051270,0.093018,-26.206106,-36.885498,-8.206107
1.270996,-0.077637,0.159180,-9.129771,-19.625954,-10.564885
1.295166,0.007568,0.139160,13.053435,19.893129,-12.641221
1.153564,0.235352,-0.013916,28.709923,48.664124,-10.030535
0.935547,0.401123,-0.004883,30.572519,60.374046,-9.366412
0.694824,0.443359,0.004883,22.305344,55.603054,-8.839695
0.526367,0.477539,-0.002197,13.923664,37.633587,-10.213740
0.483887,0.448242,0.061279,12.221375,14.007633,-10.259542
0.609131,0.433838,0.108643,11.870229,-5.748092,-6.854962
0.781494,0.442383,0.120605,9.015267,-3.984733,-5.946565
0.839355,0.371826,0.111816,2.458015,8.442748,-6.038168
0.757080,0.262939,0.103027,-7.618320,13.129771,-3.374046
0.648193,0.165527,0.142822,-12.412213,10.435115,-2.236641
0.574463,0.085205,0.144287,-18.755726,3.213740,-2.740458
0.544434,0.124512,0.111572,-23.503817,-0.908397,-0.931298
0.572021,0.246094,0.024902,-28.671755,-8.045801,3.328244
0.625000,0.299561,0.020264,-29.480917,-9.679389,4.633588
0.643066,0.239502,0.086182,-19.030535,-6.870229,5.022901
0.660889,0.169189,0.182129,-0.251908,-3.412214,2.946565
0.668213,0.184326,0.186279,18.839695,-0.694656,-0.610687
0.635010,0.200684,0.226318,23.015266,8.137404,-3.587786
0.539551,0.215088,0.306641,15.160305,17.282442,-4.045802
0.446777,0.263184,0.297852,1.305344,22.587786,-5.381680
0.377686,0.336182,0.034668,-17.015266,6.748092,-5.083970
