ax,ay,az,gx,gy,gz
0.541016,0.333252,0.676270,96.625954,-28.083969,33.442749
0.516846,0.233887,0.689941,121.083969,-27.496183,39.488548
0.528320,0.352051,0.688721,160.442749,-23.435114,43.580154
0.552979,0.408936,0.543701,178.977097,-27.610687,45.923664
0.578125,0.504150,0.410400,181.969467,-29.923664,45.282444
0.619385,0.796143,0.270508,172.595413,-29.000000,41.175571
0.632812,1.023438,0.216797,131.732819,-33.595421,34.519085
0.596191,1.029785,0.131592,72.839691,-46.984734,32.740459
0.591064,0.781982,0.214111,19.694656,-57.129772,37.503819
0.633301,0.548584,0.285889,-2.213740,-59.114502,45.374046
0.719238,0.408203,0.385986,-1.656489,-51.725189,42.244274
0.736328,0.315918,0.413818,10.832061,-42.328243,35.328243
0.751221,0.355957,0.384521,21.213741,-30.664122,33.526718
0.721191,0.476318,0.286865,15.045801,-27.206106,32.633587
0.687988,0.653076,0.207520,7.564886,-23.221375,33.129772
0.674072,0.650146,0.121826,-12.778625,-25.022902,31.190840
0.668457,0.497070,0.057373,-28.106871,-37.473282,25.480917
0.670166,0.403076,0.008789,-34.374046,-51.145039,17.343512
0.683350,0.450928,-0.008301,-33.732826,-56.328243,8.717557
0.690186,0.573486,0.009033,-33.938931,-58.709923,4.259542
0.700684,0.655518,-0.021973,-47.396946,-70.503815,3.053435
0.722656,0.663818,0.073975,-71.137405,-70.633591,6.824428
0.739990,0.659180,0.195557,-96.305344,-58.908398,11.908397
0.724121,0.617676,0.285156,-121.053436,-50.007633,8.442748
0.717041,0.544189,0.513428,-138.152664,-35.488548,11.709924
0.708740,0.482666,0.811035,-129.664124,-16.122137,2.076336
0.661133,0.374756,0.946289,-99.145035,-0.900763,-3.610687
0.590576,0.276855,0.910889,-63.320610,10.908397,-10.480916
0.545898,0.262451,0.730957,-29.862595,19.572519,-16.931297
0.505127,0.362061,0.459717,-7.671756,27.480917,-26.671755
0.423828,0.501953,0.264648,-4.381680,26.572519,-33.839695
0.346924,0.651367,0.119873,-18.099237,12.748092,-34.076336
0.347412,0.756592,0.097168,-45.213741,-13.633588,-33.244274
0.423096,0.735840,0.217773,-74.664124,-36.717556,-30.656488
0.527588,0.605225,0.323730,-99.251907,-49.312977,-25.045801
0.599854,0.384521,0.528076,-104.893127,-41.809162,-12.832061
0.681885,0.370850,0.508057,-107.099236,-35.183205,-19.328245
0.597168,0.227051,0.540527,-84.091606,-28.229008,-12.931297
0.640625,0.246826,0.375977,-50.740459,-19.755726,4.732824
0.700928,0.308105,0.290039,-35.839695,-18.618320,6.221374
0.728516,0.387695,0.359375,-19.938931,-15.648855,0.633588
0.752930,0.471680,0.348877,-11.587787,-19.458015,-0.992366
0.827637,0.506836,0.428467,-10.549619,-24.007633,-1.923664
0.908691,0.507324,0.485596,-8.824428,-23.427481,-4.816794
0.966797,0.596191,0.451660,-21.503817,-10.603053,8.076336
0.942871,0.760742,0.439453,-62.251907,-12.931297,-18.847328
0.905518,0.507080,0.502197,-41.374046,-22.114504,-10.847328
1.013916,0.439453,0.583740,-36.969467,-8.312977,-1.274809
1.026855,0.465820,0.511719,-26.816793,1.015267,-8.473283
0.970947,0.492187,0.526123,-17.458015,11.503817,-22.687023
0.877686,0.463379,0.445312,-8.343512,10.335877,-23.938931
0.884277,0.507812,0.409180,-2.198473,3.282443,-21.137405
0.896973,0.525635,0.441406,0.267176,-2.854962,-19.969465
0.926025,0.586670,0.479736,1.961832,-0.022901,-15.625955
0.898926,0.584473,0.552490,10.893129,9.648855,-14.267176
0.850586,0.642334,0.543213,9.671756,15.954199,-11.519084
0.743164,0.605225,0.541504,1.068702,15.267176,-9.885496
0.662598,0.592285,0.579346,-6.038168,10.984733,-6.748092
0.627930,0.551514,0.584717,-3.687023,-2.633588,-4.786260
0.616699,0.506836,0.545898,-14.793893,-13.717557,-4.099236
0.669922,0.555420,0.549316,-14.938931,-19.770992,-1.511450
0.685791,0.537598,0.573730,-15.297709,-25.099237,-6.251908
0.704102,0.531982,0.566406,-8.954199,-26.877863,-2.450382
0.731934,0.602539,0.512939,-13.847328,-20.900763,1.664122
0.739014,0.620605,0.477051,-17.206106,-18.183207,4.572519
0.734619,0.589111,0.495850,-25.664122,-20.175573,10.381680
0.775391,0.593750,0.673096,-10.412213,-17.755726,9.633588
0.771240,0.550049,0.709717,0.259542,-19.595419,-1.488550
0.735352,0.513184,0.691406,5.687023,-15.618320,0.351145
0.728271,0.550537,0.623779,11.129771,-7.587786,6.435114
0.729492,0.624512,0.581543,9.030535,-5.465649,6.679389
0.706055,0.609375,0.511475,3.030534,-9.679389,6.633588
0.708496,0.568848,0.511719,-5.251908,-12.251908,2.633588
0.708008,0.494629,0.509766,-4.580153,-16.122137,3.816794
0.789307,0.568604,0.468750,-13.160305,-14.030535,4.244275
0.798828,0.512939,0.395508,-19.007633,-16.351145,-1.045802
0.809326,0.450195,0.402588,-21.702290,-14.305344,-1.312977
0.801025,0.413330,0.420166,-12.511451,-9.145039,-1.358779
0.791748,0.418457,0.416504,0.290076,-7.931298,0.198473
0.790527,0.529785,0.432373,16.076336,-2.076336,0.694656
0.780762,0.616943,0.377686,14.320611,-2.687023,-1.473282
0.763916,0.560791,0.376953,8.832061,-9.656488,-5.183206
0.787598,0.558594,0.383789,-0.175573,-5.213740,0.488550
0.765869,0.505127,0.469238,7.687023,0.099237,-7.946565
0.744141,0.478760,0.429199,11.832061,3.053435,-4.954198
0.722412,0.520752,0.445557,14.816793,5.244275,-9.007633
0.706543,0.515625,0.411865,11.908397,0.274809,-11.725191
0.695801,0.502686,0.394775,11.748092,-2.183206,-11.618320
0.698975,0.550781,0.397705,4.572519,-3.595420,-10.122137
0.694336,0.520508,0.429199,11.106871,-5.770992,-11.412213
0.696533,0.503418,0.472412,12.282443,-4.328244,-8.061069
0.701416,0.515625,0.504883,16.213741,0.015267,-4.099236
0.694092,0.495605,0.495605,21.045801,3.122137,-5.374046
0.657471,0.470703,0.423340,22.244274,6.137404,-2.351145
0.656738,0.479248,0.410156,30.488550,5.312977,-4.603054
0.644531,0.501953,0.400635,26.717558,0.450382,-2.610687
0.697021,0.605225,0.432129,29.984734,-0.221374,-2.809160
0.717773,0.657715,0.437500,13.236641,-2.053435,-3.488550
0.733643,0.628418,0.396729,10.534351,0.038168,-2.175573
0.757080,0.617676,0.461914,10.251908,3.435115,-3.519084
0.739014,0.580566,0.412109,6.175572,3.519084,-4.198473
0.747803,0.582764,0.485596,9.877863,5.526718,-6.763359
0.744629,0.538330,0.442871,11.977099,4.610687,-8.068703
0.740967,0.564941,0.440430,4.488550,9.717557,-7.664122
0.713135,0.553223,0.416504,1.832061,9.572519,-8.656488
0.693359,0.484131,0.431396,4.450382,7.969466,-8.496183
0.701172,0.537109,0.422119,2.221374,9.748092,-4.954198
0.711670,0.595459,0.432129,-0.480916,9.473283,-6.557252
0.710205,0.568604,0.439697,1.908397,7.541985,-9.374045
0.724121,0.562500,0.482178,1.938931,9.488549,-9.671756
0.750977,0.592285,0.470215,-1.412214,10.076336,-10.885496
0.762451,0.553467,0.425537,-3.198473,11.633588,-12.793893
0.724365,0.472168,0.427490,-4.969466,16.114504,-12.488549
0.682861,0.466309,0.424561,-1.511450,19.045801,-8.519084
0.675781,0.515381,0.458496,0.572519,16.977098,-5.587786
0.693604,0.565918,0.471191,1.305344,13.190840,-5.190840
0.716064,0.580566,0.482666,3.274809,12.687023,-5.229008
0.719727,0.560547,0.480713,9.312977,16.625954,-3.488550
0.701416,0.566406,0.446289,6.458015,24.030535,-0.412214
0.654053,0.600098,0.431152,-1.213740,27.992367,2.488550
0.611084,0.591064,0.412109,-7.137404,22.167938,3.290076
0.600586,0.556396,0.456787,-11.717557,14.725191,4.839694
0.643555,0.596924,0.477051,-11.160305,8.610687,6.335878
0.702148,0.637207,0.509277,-9.938931,7.450382,4.793893
0.734619,0.639893,0.518555,-5.809160,10.572519,3.732824
0.744141,0.640625,0.473389,-4.343512,14.358779,3.778626
0.734619,0.650146,0.452881,-3.419847,18.870230,3.412214
0.708984,0.669189,0.455811,-2.305344,19.007633,0.961832
0.688232,0.678223,0.472900,-0.312977,15.557252,0.221374
0.692383,0.666504,0.474854,1.557252,13.030535,-0.145038
0.693604,0.666504,0.455322,2.496183,13.236641,-2.160305
0.690674,0.646973,0.470703,2.160305,15.122137,-2.244275
0.677246,0.610596,0.464600,2.465649,17.374046,-1.480916
0.674805,0.568604,0.465088,2.877863,16.870230,-1.603053
0.670166,0.535156,0.458496,3.160305,14.786260,-2.297710
0.660889,0.498291,0.416016,0.801527,13.251908,-2.076336
0.636719,0.493164,0.489746,-1.167939,16.946566,0.877863
0.636230,0.550049,0.537109,1.969466,14.503817,3.221374
0.663574,0.582275,0.563232,4.137404,7.580153,2.603053
0.707764,0.589355,0.588135,5.923664,4.900764,1.496183
0.751465,0.602051,0.583008,6.824428,4.977099,-0.282443
0.771973,0.599121,0.549072,3.671756,9.236641,-0.572519
0.760254,0.546631,0.492920,-2.343511,15.862596,-1.778626
0.701904,0.470703,0.480469,-7.122138,20.832062,-0.312977
0.664307,0.443604,0.438965,-10.587787,18.732824,4.610687
0.658447,0.450195,0.446777,-15.992367,15.534351,7.519084
0.658936,0.464844,0.486084,-17.045801,9.877863,4.854962
0.676758,0.463867,0.492432,-15.137404,5.893130,7.862596
0.702637,0.443359,0.501465,-12.541985,7.038168,10.053435
0.716064,0.406982,0.484863,-5.122138,10.167939,11.809160
0.713867,0.418457,0.487793,1.770992,14.068703,12.145039
0.678223,0.435059,0.490234,9.160305,14.946565,11.709924
0.662354,0.477783,0.503662,16.778625,17.068703,15.251908
0.649902,0.597412,0.506592,17.229008,18.984734,14.580153
0.611084,0.645508,0.513428,16.725191,20.534351,13.816793
0.565918,0.604980,0.489746,14.198473,20.167938,12.633588
0.521973,0.571045,0.466553,10.992367,21.870230,13.755725
0.495117,0.546387,0.470947,5.374046,18.625954,10.984733
0.512207,0.510742,0.514893,0.053435,10.465649,7.015267
0.572510,0.518066,0.609131,-2.465649,4.083970,3.160305
0.648926,0.564697,0.639648,-2.740458,3.061069,-0.137405
0.712158,0.572021,0.601318,-7.396946,10.885496,-1.450382
0.708984,0.514404,0.560303,-15.000000,19.778625,-3.900763
0.712158,0.488770,0.563721,-14.351145,24.778625,-5.656488
0.723633,0.512207,0.523437,-14.282443,23.305344,-10.511451
0.755371,0.531006,0.521484,-13.297709,21.641222,-14.824428
0.795898,0.550781,0.526367,-16.442749,21.900763,-20.793894
0.804199,0.526123,0.521484,-25.503817,26.290077,-23.045801
0.789307,0.466797,0.527100,-29.450382,32.778625,-24.152672
0.737549,0.370117,0.509277,-31.587786,38.290077,-22.290077
0.656738,0.329834,0.508057,-26.396946,45.137405,-18.778625
0.575439,0.325439,0.523437,-17.557251,42.167938,-13.702291
0.564941,0.432373,0.554443,-12.358779,34.893131,-9.793893
0.604736,0.554932,0.585205,-10.954199,21.259542,-12.854961
0.643311,0.548096,0.568604,-12.839695,12.931297,-14.442748
0.648682,0.498535,0.645752,-9.954199,20.335878,-14.893129
0.596924,0.517822,0.640869,-6.419847,21.824427,-8.610687
0.596436,0.570312,0.650635,-3.717557,16.977098,-4.931298
0.609619,0.586426,0.638428,0.358779,12.137404,-6.984733
0.607178,0.582764,0.602051,0.587786,9.923664,-7.114504
0.608398,0.583740,0.586182,2.969466,13.511451,-1.625954
0.599365,0.582275,0.537109,0.160305,16.099237,1.320611
0.542969,0.551270,0.562256,0.755725,17.190840,1.076336
0.490479,0.569092,0.525635,3.267176,10.442748,4.221374
0.531006,0.624268,0.502441,1.068702,4.641222,5.786260
0.545898,0.657471,0.508789,1.198473,2.633588,-2.022901
0.540771,0.675293,0.508301,2.679389,2.099237,-2.916031
0.514648,0.692139,0.512451,-5.832061,6.099236,-3.396947
0.491455,0.649902,0.530273,-10.839695,7.725191,1.259542
0.491211,0.581543,0.575439,-8.832061,6.687023,-1.503817
0.494385,0.616455,0.591309,-2.610687,6.534351,-7.236641
0.474854,0.650391,0.575928,-0.778626,6.923664,-8.465649
0.472412,0.654541,0.601562,6.503817,9.877863,-9.007633
0.452881,0.654297,0.613037,12.740458,9.854961,-13.274809
0.442383,0.665283,0.616943,17.656488,11.221375,-9.839695
0.455566,0.704102,0.690186,17.160305,13.671756,-8.419847
0.490479,0.704346,0.687256,25.038168,14.374045,-9.167939
0.471680,0.725342,0.697510,30.511450,19.053434,-15.503817
0.458984,0.791504,0.715820,27.549618,20.717558,-15.625955
0.467529,0.762939,0.811523,17.114504,14.053435,-12.274809
0.605957,0.715332,0.905273,21.534351,13.450381,-15.259542
0.701904,0.665527,1.017578,36.114502,19.755726,-24.244274
0.750732,0.696289,0.912842,46.114502,37.541985,-26.213741
0.687256,0.706787,0.780273,43.557251,62.946564,-27.061069
0.568604,0.672119,0.660400,35.091602,71.969467,-26.954199
0.500000,0.622559,0.588623,24.099237,67.099236,-25.320610
0.525146,0.568604,0.592041,15.694656,60.328243,-28.572519
0.520508,0.567139,0.501953,3.564885,53.534351,-40.503819
0.487549,0.559326,0.478027,1.099237,54.625954,-33.374046
0.405762,0.494141,0.372070,-21.015266,50.488548,-35.305344
0.342773,0.358154,0.328125,-33.717556,52.106869,-24.633587
0.219727,0.198730,0.348633,-36.793892,44.450382,-14.190840
0.161133,0.137695,0.373535,-29.053434,28.267176,-1.832061
0.187744,0.163330,0.416504,-13.412213,9.519084,7.244275
0.233887,0.279541,0.461914,-0.801527,-12.358779,13.648855
0.354248,0.370605,0.440186,14.213740,-32.381680,8.908397
0.452637,0.454834,0.439697,27.854961,-38.480915,10.000000
0.547607,0.644531,0.458496,48.190838,-32.152672,15.145039
0.612061,0.906982,0.520020,47.580154,-23.129770,14.625955
0.618408,1.078613,0.530762,40.267174,-8.709924,14.267176
0.525879,0.995850,0.650635,26.748091,1.435115,18.198473
0.510986,1.012695,0.549805,3.022901,8.595420,14.923664
0.397217,0.876465,0.585205,-12.259542,5.267176,8.946565
0.380859,0.804687,0.545166,-16.167938,-1.938931,3.816794
0.306396,0.773682,0.559082,-32.442749,-11.778625,-5.717557
0.342773,0.754395,0.575684,-30.221375,-23.786259,-4.267176
0.389160,0.741943,0.623047,-36.870228,-27.763359,-5.900764
0.453369,0.725098,0.657959,-33.534351,-23.618320,-3.572519
0.463135,0.690430,0.686523,-32.435116,-16.450382,-3.312977
0.455078,0.662354,0.692139,-30.412214,-9.083969,-1.740458
0.442627,0.624756,0.688232,-28.366413,-8.778625,-2.564885
0.443115,0.584961,0.685791,-26.320610,-10.511451,-4.061069
0.462891,0.553467,0.684082,-24.763359,-10.404580,-5.297710
0.475342,0.536865,0.671631,-22.068703,-9.175572,-5.648855
0.478027,0.528320,0.662109,-20.549618,-7.167939,-6.190840
0.480957,0.515625,0.687256,-17.412214,-5.770992,-4.908397
0.499756,0.535156,0.703369,-12.412213,-4.748092,-4.290076
0.520020,0.558838,0.710449,-6.045802,-3.167939,-4.557252
0.534668,0.578857,0.679687,-4.564886,0.664122,-4.190840
0.522705,0.573975,0.663330,-7.099236,5.870229,-3.450382
0.489014,0.552246,0.645752,-7.145038,6.694656,-2.625954
0.471191,0.527588,0.624268,-7.625954,3.496183,-3.664122
0.465332,0.526855,0.628418,-5.458015,1.343511,-3.519084
0.467041,0.561279,0.646240,-2.114504,-0.251908,-3.091603
0.475830,0.568115,0.677979,2.824427,1.015267,-0.923664
0.487549,0.615967,0.680420,5.725191,5.778626,2.801527
0.488037,0.687744,0.686279,0.496183,5.488550,0.870229
0.488281,0.684326,0.710449,-4.564886,2.000000,-1.282443
0.505127,0.608887,0.749268,-1.175573,0.458015,-0.992366
0.535889,0.620605,0.719482,2.763359,5.030534,-0.320611
0.538086,0.653320,0.699951,6.580153,9.145039,-2.610687
0.532959,0.674316,0.674316,5.847328,11.916031,-3.801527
0.530518,0.701416,0.685547,5.351145,16.083969,-4.625954
0.540039,0.745605,0.694824,5.977099,18.129770,-7.786260
0.540283,0.749023,0.707764,3.580153,20.824427,-13.053435
0.512939,0.740479,0.705078,0.687023,25.458015,-16.458015
0.474854,0.750488,0.715088,-3.000000,27.816793,-19.977098
0.438721,0.764404,0.699951,-4.282443,24.717558,-24.763359
0.425049,0.772705,0.662354,-9.671756,20.259542,-25.328245
0.425537,0.791748,0.631104,-10.221375,18.938931,-31.526718
0.371338,0.737305,0.590332,-14.083969,17.122137,-27.671755
0.336914,0.715332,0.533203,-17.091602,12.511451,-30.106871
0.329590,0.712402,0.532227,-18.450382,6.893130,-28.404581
0.288574,0.630127,0.522217,-19.877863,-2.557252,-28.923664
0.263428,0.545166,0.517822,-19.480917,-11.152672,-27.664122
0.286377,0.529785,0.537354,-19.122137,-15.068703,-20.587786
0.266357,0.462646,0.514160,-17.129770,-24.465649,-23.312977
0.299561,0.465332,0.567871,-14.603053,-27.587786,-14.206107
0.306641,0.422607,0.548584,-16.312977,-35.328243,-10.061069
0.326660,0.391357,0.627197,-14.206107,-36.244274,-10.366412
0.292969,0.335693,0.691406,-8.229008,-40.381680,-1.763359
0.329102,0.370361,0.738525,-1.358779,-43.374046,5.793893
0.365479,0.360352,0.772217,5.641222,-47.343510,10.396947
0.430420,0.439697,0.779785,10.625955,-46.839695,15.809160
0.472900,0.537598,0.726562,7.961832,-51.213741,13.496183
0.505859,0.518799,0.678711,1.091603,-55.206108,13.694656
0.533447,0.470215,0.614990,-4.129771,-55.381680,18.068703
0.577148,0.463623,0.610840,-6.259542,-55.251907,19.068703
0.576660,0.504639,0.667969,-4.450382,-55.267174,16.267176
0.588623,0.535645,0.709717,0.068702,-57.580154,18.870230
0.636963,0.512451,0.724609,7.595420,-54.587788,23.129770
0.661133,0.443115,0.692871,12.442748,-49.244274,24.442749
0.621338,0.438721,0.670898,16.427481,-43.572517,22.458015
0.567627,0.467773,0.654541,14.778625,-47.618320,19.099237
0.530762,0.490967,0.520508,7.091603,-56.335876,17.396946
0.514404,0.511719,0.450928,-3.328244,-59.511452,15.732824
0.474365,0.470947,0.336670,-15.419847,-65.351143,16.129770
0.421143,0.383789,0.193604,-26.816793,-68.534348,17.725191
0.334717,0.316406,0.114746,-29.648855,-70.961830,23.290077
0.270996,0.255615,0.206055,-17.984734,-75.335876,34.167938
0.214844,0.226074,0.415771,-8.656488,-77.671753,46.702290
0.205322,0.267090,0.562500,32.526718,-81.129768,60.389313
0.271973,0.539795,0.769043,59.229008,-90.343513,66.549622
0.458252,0.754639,0.859375,85.427483,-95.923668,74.946564
0.658203,0.886475,0.825195,89.297707,-89.816795,69.702293
0.768555,1.038818,0.671631,71.977097,-75.412216,54.465649
0.797119,1.091553,0.447510,66.152672,-53.923664,49.732826
0.707275,1.088867,0.365967,22.145039,-40.145039,39.809162
0.622803,0.850098,0.343506,-2.977099,-48.793892,36.519085
0.595947,0.697754,0.398682,-25.641222,-66.190842,30.038168
0.704834,0.562988,0.409912,-22.725191,-77.053436,35.679390
0.905762,0.567139,0.341797,-17.709923,-75.755722,32.519085
0.986816,0.573730,0.346436,-9.114504,-57.305344,21.175573
0.931152,0.495850,0.203125,-12.145039,-40.030533,14.328244
0.840576,0.471924,0.214111,-8.618320,-20.931297,12.725191
0.788330,0.427002,0.164551,9.076336,-26.496183,10.938931
0.771729,0.562256,0.133301,-2.977099,-32.534351,4.809160
0.838135,0.543945,0.207031,-0.580153,-37.442749,3.717557
0.901855,0.541260,0.410645,-9.763359,-35.709923,1.030534
0.944092,0.534912,0.360840,-7.687023,-34.847328,-0.076336
0.943604,0.394775,0.510742,-4.793893,-23.847328,1.854962
0.912598,0.411377,0.548584,-1.877863,-16.488550,-0.893130
0.875977,0.463379,0.574707,14.526717,-20.320610,-3.175573
0.937988,0.549072,0.520752,24.526718,-16.778625,-0.244275
0.934082,0.672852,0.436768,15.580153,-11.435115,-4.916030
0.856934,0.613770,0.411377,-0.106870,-12.847328,1.175573
0.866211,0.514648,0.472168,1.610687,-14.854961,1.480916
0.880615,0.550537,0.417236,9.053435,-24.648855,-5.389313
0.902588,0.607910,0.422119,11.618320,-25.931297,-3.091603
0.945801,0.641357,0.419922,12.229008,-20.755726,-1.312977
0.923584,0.570068,0.449219,18.740458,-15.374045,-1.648855
0.884521,0.522217,0.389160,26.885496,-12.312977,-2.106870
0.852295,0.551270,0.414795,33.320610,-10.145039,-1.389313
0.872559,0.582520,0.404785,36.015266,-12.969465,-0.129771
0.930420,0.596924,0.385986,35.145039,-11.664123,-2.045802
0.947998,0.584473,0.391113,34.671757,-6.381680,-5.854962
0.949951,0.595947,0.366699,34.984734,-2.549618,-7.045802
0.954590,0.634033,0.347656,31.282442,-2.641221,-13.419847
0.965332,0.651855,0.345215,28.091602,-0.068702,-16.633587
0.963623,0.663086,0.344482,24.022902,4.190840,-21.717558
0.936279,0.614014,0.217285,24.564886,7.458015,-21.954199
0.858154,0.543945,0.239258,24.809160,13.778625,-23.282442
0.763428,0.535156,0.266113,30.053434,11.870229,-17.969465
0.723145,0.603027,0.219727,25.946566,0.580153,-17.183207
0.657959,0.555176,0.253906,23.458015,-1.305344,-13.816793
0.612793,0.542480,0.277588,19.198473,-3.992366,-9.648855
0.569336,0.488037,0.289307,8.122137,-8.320611,-4.442748
0.549805,0.428955,0.376465,9.061069,-10.145039,-1.748092
0.540527,0.431641,0.290771,18.633587,-14.908397,-2.885496
0.510010,0.379883,0.273193,16.549618,-7.366412,-1.267176
0.441406,0.398193,0.267090,8.893129,-2.290076,4.465649
0.467285,0.431152,0.255859,1.610687,-13.320611,6.671756
0.542480,0.459961,0.277832,-3.824427,-20.839695,3.656489
0.638916,0.574463,0.274414,-1.267176,-18.564886,1.961832
0.696777,0.631592,0.171387,-7.137404,-11.290076,-2.129771
0.682129,0.631348,0.095703,-18.053434,-3.824427,-5.778626
0.692871,0.615234,0.021729,-29.442749,-6.870229,-10.152672
0.711182,0.534424,-0.023926,-40.396946,-9.885496,-16.160305
0.744385,0.495361,0.075684,-41.748093,-6.366412,-20.580153
0.817139,0.537598,0.116211,-31.496183,-5.870229,-25.099237
0.903076,0.613281,0.070557,-29.893129,0.412214,-29.740458
0.936768,0.591797,0.130371,-24.610687,12.083969,-31.893129
0.939453,0.596680,0.108398,-21.473282,20.687023,-37.755726
0.888916,0.551025,0.079590,-16.244274,27.717558,-41.236641
0.790039,0.524658,0.085449,-14.259542,37.702290,-43.816795
0.669922,0.415283,0.012451,-12.152672,39.893131,-40.114502
0.491211,0.327881,-0.068848,-9.396947,50.969467,-36.167938
0.246094,0.247070,-0.237793,-5.801527,55.251907,-26.938931
-0.060303,0.179932,-0.070312,-17.801527,64.770996,-16.083969
-0.397461,0.067627,0.054932,-31.076336,40.122139,21.427481
-0.229980,0.161621,0.113281,-23.770992,8.755725,64.267174
-0.116455,0.233398,0.303711,6.923664,5.022901,57.290077
-0.089111,0.279053,0.356201,38.564884,-7.748092,53.229008
0.001953,0.580322,0.168457,5.076336,-21.175573,82.442749
0.291992,0.928711,0.146729,-67.328247,-31.732824,104.213737
0.578369,0.821289,0.353760,-132.770996,-56.549618,93.870232
1.047607,0.986084,0.615479,-148.931305,-104.893127,64.198471
1.821533,1.216309,0.957031,-126.885498,-170.885498,50.160305
1.984314,1.087158,1.038818,-77.412216,-155.755722,114.549622
1.984314,1.370117,0.229248,-64.557251,174.458008,-48.213741
1.365967,0.856934,0.199951,-55.038166,152.916031,-63.114502
0.553711,0.325195,0.620361,-32.893131,178.106873,-54.854961
-0.193115,0.237305,0.779053,6.358778,111.633591,-29.778625
-0.001709,0.300781,1.078369,21.045801,-32.580154,40.534351
0.923828,0.221436,1.093262,43.396946,-88.931297,58.595421
1.326416,0.318359,0.773437,69.198471,-80.893127,32.251907
1.368896,0.664062,0.860840,83.221375,-63.030533,10.587787
1.357910,0.606934,0.789795,92.053436,-54.641220,4.625954
1.229980,0.478516,0.766846,102.267174,-30.900763,-8.786260
1.037109,0.482422,0.723633,111.832062,-16.030535,-10.748092
0.920166,0.534668,0.531738,115.977097,-31.770992,4.160306
0.887939,0.636230,0.461426,105.229004,-58.068703,18.519083
0.963379,0.750732,0.367432,97.572517,-65.526718,28.190840
1.002930,0.792725,0.271240,83.320610,-69.114502,31.076336
0.977051,0.741699,0.249268,69.061066,-63.961834,41.587788
0.941406,0.775146,0.152344,46.274811,-65.732826,52.366413
0.924805,0.685791,0.084961,36.732826,-75.824425,54.679390
0.931885,0.537109,0.100342,37.580154,-78.702293,55.549618
0.974609,0.414551,0.060303,55.053436,-78.419846,53.389313
1.032959,0.365967,0.160156,79.870232,-62.335876,51.847328
1.047852,0.458984,0.148437,105.618324,-38.687023,52.984734
0.997070,0.683105,0.067383,116.557251,-9.106871,51.725189
0.849609,0.747314,-0.052246,104.412216,7.610687,49.435116
0.680908,0.608398,-0.096924,79.450378,8.236641,47.465649
0.608154,0.409668,-0.094238,60.190838,4.938931,42.259541
0.588867,0.281494,-0.161377,49.526718,1.167939,32.045803
0.587646,0.227051,-0.158936,41.152672,2.221374,21.641222
0.569092,0.234863,-0.245850,24.977098,-1.435115,13.282443
0.551514,0.298584,-0.173584,9.694656,-3.137405,5.694656
0.523682,0.326660,-0.029297,6.488550,-2.412214,1.251908
0.489502,0.262207,-0.125244,3.748092,-9.664123,3.793893
0.517822,0.216309,-0.010742,1.709924,1.366412,5.343512
0.497559,0.200928,-0.057129,3.786260,3.648855,4.664122
0.438477,0.145508,-0.045410,-0.557252,12.847328,2.503817
0.338379,0.067627,-0.114746,-14.145039,8.954199,4.664122
0.249512,0.031738,-0.075928,-16.526718,1.618321,14.122137
0.278076,0.209473,-0.173340,-7.511450,1.412214,7.152672
0.283447,0.158203,-0.245850,-30.732824,-9.679389,3.183206
0.299316,0.138916,-0.267822,-38.175571,-10.175572,3.557252
0.296387,0.125977,-0.325195,-47.374046,-5.755725,0.847328
0.236572,0.087646,-0.281494,-55.343510,-7.312977,4.816794
0.216797,0.036133,-0.168701,-50.007633,-8.221375,10.198473
0.200195,0.054932,-0.066406,-35.068703,-6.679389,8.396947
0.165527,0.134521,-0.066162,-22.709923,-9.290076,6.419847
0.219727,0.269043,-0.142822,-24.877863,-21.625954,3.595420
0.342285,0.453857,-0.212646,-38.870228,-37.832062,0.351145
0.424805,0.716309,-0.328369,-108.152672,-42.946564,15.251908
0.705811,0.374268,0.164795,-70.816795,13.763359,99.786263
0.766113,0.419189,0.290771,-62.519085,15.312977,47.389313
0.636475,0.274170,0.517090,-35.740459,20.152672,34.954197
1.335938,0.833984,0.782715,-52.068703,34.305344,67.893127
1.984314,1.205811,1.017578,-68.824425,234.748093,-66.381676
1.984314,1.541260,1.096436,-40.076336,239.664124,-56.068703
1.984314,1.447266,0.890381,-31.000000,153.320618,-108.320610
1.984314,0.762695,0.258545,-132.129776,98.938934,-17.648855
1.397949,-0.270508,0.102539,-49.190838,30.122137,-27.770992
1.155518,-0.013916,0.385986,14.053435,-27.137405,-9.847328
0.974854,0.409180,0.492676,68.015266,-40.038166,19.641222
1.046875,0.830078,0.555908,84.007637,-55.427483,26.068703
1.205566,0.814697,0.595703,72.847328,-88.931297,31.633587
1.426514,0.638184,0.519043,44.832062,-104.351143,38.190838
1.496094,0.570312,0.445557,23.816793,-102.290077,28.206106
1.548096,0.525879,0.384521,7.343512,-87.702293,17.839695
1.539307,0.587158,0.149414,-13.198473,-85.969467,-9.167939
1.358887,0.435547,0.227295,-28.198473,-76.244278,-32.274811
1.259521,0.324219,0.383301,-9.580153,-29.458015,-32.419846
1.104736,0.424316,0.307617,17.687023,9.763359,-10.290076
0.958008,0.607666,0.182861,22.419847,35.450382,11.824428
0.833008,0.558594,0.176514,21.969465,34.740459,16.717558
0.772705,0.481201,0.160889,28.801527,21.793894,16.312977
0.795898,0.466309,0.142822,32.916031,16.473282,14.152672
0.807617,0.446533,0.071045,27.564886,15.175572,9.801527
0.762695,0.352539,0.082031,18.343512,15.488549,5.267176
0.701416,0.225586,0.143311,9.870229,11.809160,3.961832
0.675293,0.178955,0.171387,8.351145,7.404580,1.770992
0.676025,0.238770,0.145508,12.908397,4.564886,-0.038168
0.704346,0.387207,0.111816,15.770992,5.664122,-2.641221
0.709473,0.405518,0.062012,12.854961,9.358779,1.480916
0.646484,0.335693,0.050293,8.694656,14.908397,7.465649
0.578369,0.280762,0.002197,4.503817,13.435115,8.816793
0.526123,0.198730,-0.021240,5.038168,9.068703,7.167939
0.518555,0.172363,-0.045166,6.572519,6.977099,6.251908
0.520508,0.152100,-0.029297,9.022901,4.229008,5.610687
0.513428,0.084473,-0.053955,13.366412,1.129771,3.511450
0.525635,0.031006,0.019043,20.465649,1.763359,4.702290
0.519287,-0.013428,0.082031,31.549618,3.702290,5.099236
0.491211,0.009033,0.086182,39.404579,5.282443,3.664122
0.434814,-0.019287,0.048584,40.274811,8.458015,7.572519
0.382813,0.029053,0.039063,35.114502,16.122137,11.442748
0.278564,0.054932,0.024902,29.106871,16.045801,15.320611
0.205566,0.126221,-0.027588,20.312977,10.664123,18.816793
0.161377,0.239746,-0.138672,10.076336,4.099236,19.297710
0.126465,0.309082,-0.191162,-5.557252,-4.717557,17.099237
0.071533,0.314209,-0.170410,-16.847328,-11.374045,15.320611
0.053955,0.249756,-0.161133,-19.290077,-18.129770,15.725191
0.092773,0.237305,-0.094727,-9.916031,-26.725191,14.633588
0.174316,0.341064,-0.072266,4.465649,-31.916031,9.587787
0.261963,0.447754,-0.133301,2.679389,-43.671757,5.198473
0.337158,0.449707,-0.216797,-18.885496,-48.725189,4.328244
0.339355,0.426270,-0.325684,-46.274811,-39.755726,10.748092
0.159424,-0.007324,-0.052246,-95.106873,-19.312977,49.465649
0.548096,-0.010010,-0.106934,-40.152672,-6.725191,70.076332
0.811768,0.218018,0.262695,-20.206106,-30.305344,7.030534
1.664551,0.692627,0.579102,15.038168,-43.786259,-16.458015
1.984314,1.032471,0.875000,22.297710,248.175568,-250.137405
1.984314,1.984314,1.803955,-70.564888,248.175568,-26.732824
1.984314,0.549805,0.958252,-49.236641,147.519089,-76.389313
1.984314,0.048096,-0.616943,-121.503815,-32.106869,-69.694656
0.924805,-0.832764,0.137207,-79.267174,-16.000000,-55.076336
0.957520,0.435791,0.339111,83.854965,-4.236641,-34.526718
0.603271,1.705811,0.270508,60.053436,-38.534351,-6.229008
1.055176,0.988525,0.682861,76.633591,-29.007633,61.694656
1.264893,1.095459,0.444580,85.908394,-65.786263,62.580154
1.485596,1.280273,0.209717,56.122139,-92.793892,72.610687
1.694580,0.845215,0.236328,26.725191,-108.862595,78.465652
1.776123,0.526611,0.304932,18.442749,-105.068703,63.175571
1.669189,0.490723,0.319580,4.786260,-97.755722,15.824428
1.530762,0.321289,0.359131,18.396946,-28.183207,-12.755725
1.200684,0.378662,0.191895,6.000000,19.610687,16.450382
0.962891,0.301514,0.047363,0.083969,33.862595,21.427481
0.852539,0.218506,0.079590,0.297710,24.580153,13.511451
0.841797,0.345459,0.077881,31.786259,12.419847,2.778626
0.924805,0.504150,0.034180,52.923664,15.145039,-1.671756
0.953125,0.589600,-0.018555,50.450382,22.534351,-4.679389
0.841064,0.552979,-0.059082,32.740459,25.290077,-2.473282
0.701416,0.347168,0.018555,8.122137,12.389313,3.793893
0.641357,0.134033,0.135742,-11.923664,-0.206107,5.648855
0.635010,0.044434,0.145752,-14.053435,-6.625954,0.992366
0.650146,0.070068,0.105469,-10.984733,-7.702290,-5.923664
0.629395,0.108887,0.055176,-8.847328,-1.801527,-11.076336
0.534180,0.075439,0.033447,-9.664123,5.854962,-10.748092
0.427734,0.021729,0.045410,-7.450382,9.809160,-7.877862
0.337402,-0.003174,0.105957,4.511450,13.091603,-2.694656
0.298584,0.127930,0.090576,18.702290,12.213740,-0.236641
0.325928,0.291992,0.028809,30.725191,0.496183,2.305344
0.369629,0.419922,-0.064697,31.030535,-3.099237,1.236641
0.383057,0.427490,-0.151855,18.702290,-5.923664,-0.519084
0.339600,0.312256,-0.107666,6.908397,-8.106871,-0.320611
0.306641,0.209717,-0.092041,-1.381679,-11.305344,4.320611
0.302979,0.138672,-0.016602,-5.580153,-16.580153,6.595420
0.334229,0.135010,-0.009521,-7.251908,-18.038168,3.740458
0.312500,0.050049,-0.038574,-11.549619,-17.190840,2.251908
0.268311,-0.007080,0.002686,-10.267176,-12.511451,4.709924
0.285156,0.044434,-0.022949,-7.572519,-15.938931,8.465649
0.326172,0.114258,-0.018555,-4.656488,-22.732824,7.839694
0.364990,0.131836,-0.056885,-3.893130,-28.122137,7.923664
0.397461,0.135986,0.004150,0.251908,-28.854961,8.137404
0.417236,0.120117,0.094482,7.229008,-21.954199,7.931298
0.375000,0.244385,0.083252,-0.801527,-10.671756,23.633587
0.276367,-0.052490,0.385498,-35.900764,-6.267176,58.923664
0.562988,0.042969,0.052979,-21.374046,0.564885,62.618320
0.446777,0.174561,0.154541,-63.473282,-14.572519,7.038168
0.465576,0.112061,0.082275,-35.748093,-30.473282,9.977099
0.685547,0.228027,0.208496,-27.595419,-40.175571,14.427481
1.136719,0.405762,0.390381,-7.580153,-22.183207,46.152672
1.984314,1.732178,1.283691,-18.473282,168.854965,-83.984734
1.867920,0.972168,0.537842,-23.160305,186.129776,-97.854965
1.984314,1.968750,1.021484,-51.160305,226.175568,-128.992371
1.984314,0.696289,0.317627,-48.442749,68.366409,-63.969467
1.580322,-0.563721,-0.428223,-77.770996,-26.503817,-18.641222
0.759033,0.176025,-0.060547,41.061069,-37.366413,-54.114502
0.542236,1.274170,0.064453,105.389313,-52.801525,-10.137404
1.088623,1.717041,-0.052246,39.297710,-14.435115,51.328243
1.309814,1.078857,0.206299,19.503817,-55.167938,83.564888
1.632568,0.796143,0.193359,11.977099,-67.740456,73.900764
1.777100,0.549561,0.244385,15.419847,-94.198471,52.267174
1.926025,0.648193,0.048828,-10.885496,-99.122139,4.297710
1.862549,0.345459,0.307617,-53.923664,-89.541985,-31.312977
1.592773,0.076416,0.524170,-33.564884,-19.290077,-27.748091
1.265869,0.050049,0.458252,4.236641,37.404579,-7.671756
1.024902,0.190430,0.437988,37.870228,58.809162,-3.229008
0.867676,0.367188,0.354248,58.862595,61.190838,-3.030534
0.837158,0.583740,0.311279,72.236641,55.000000,-2.435115
0.841309,0.726074,0.249512,65.824425,54.038166,-3.022901
0.811768,0.741455,0.168701,41.740459,46.893131,0.312977
0.784668,0.614746,0.063477,9.809160,29.770992,3.740458
0.794434,0.400635,0.028809,-20.832062,14.282443,2.740458
0.826172,0.188477,0.074707,-38.282444,6.923664,-1.595420
0.835205,0.069336,0.064697,-40.007633,5.694656,-9.305344
0.813721,0.059082,0.103271,-33.412212,10.847328,-19.229008
0.738281,0.062012,0.125977,-15.938931,24.045801,-18.809160
0.667725,0.142334,0.060059,-4.763359,30.854961,-18.244274
0.549316,0.154053,-0.016357,4.465649,37.618320,-9.824428
0.448486,0.113037,-0.038086,5.625954,39.679390,-7.129771
0.350586,0.041504,-0.062012,14.625955,37.122139,0.534351
0.333008,0.070068,-0.086426,25.305344,29.022902,1.320611
0.416504,0.180176,-0.100098,31.938931,9.694656,0.961832
0.529053,0.254395,-0.111328,31.312977,-1.809160,-2.816794
0.549072,0.202148,-0.072754,24.725191,2.992366,1.335878
0.532471,0.170166,-0.054443,21.770992,7.091603,3.335878
0.468262,0.185303,-0.039795,14.572519,5.488550,-2.175573
0.415283,0.238281,0.005371,9.832061,2.366412,4.198473
0.387939,0.222900,0.028320,-0.022901,-8.419847,5.412214
0.344971,0.211182,-0.027344,-8.870229,-21.992367,6.694656
0.380615,0.259766,-0.090576,-9.465649,-27.458015,14.007633
0.430908,0.295898,-0.093994,-12.778625,-27.694656,16.419847
0.421143,0.286377,-0.067627,-14.152672,-25.977098,13.587787
0.433838,0.267578,-0.010498,-18.709923,-20.847328,12.038168
0.394043,0.230469,0.118896,-22.374046,-23.335878,4.900764
0.364502,0.155029,0.204590,-20.679390,-31.977098,4.862596
0.402344,0.156982,0.293945,-14.061069,-34.519085,7.748092
0.459229,0.257813,0.355225,-5.274809,-30.931297,7.190840
0.474121,0.328613,0.367676,-1.083969,-25.114504,6.320611
0.403809,0.287598,0.254639,-6.541985,-18.648855,8.618320
0.312500,0.222168,0.239746,-7.511450,-13.015267,10.671756
0.260498,0.167725,0.188232,-6.221374,-12.679389,10.236641
0.216309,0.359619,-0.066406,-58.801525,-14.877863,20.404581
0.344238,0.165039,0.076416,-24.068703,-13.488549,53.038166
0.566895,0.478760,-0.129395,-41.587788,-35.190838,18.412214
0.649902,0.329346,-0.086182,-30.511450,-51.938931,-2.862595
0.873535,0.239990,0.017334,-51.816795,-50.335876,3.786260
1.248047,0.356689,0.307617,-38.572517,-38.328243,21.587786
1.957031,0.687988,0.639160,-17.160305,-21.824427,42.251907
1.984314,1.984314,1.679443,-16.190840,218.916031,-117.068703
1.984314,0.656982,0.886963,26.900763,120.931297,-107.473282
1.984314,0.832031,0.319824,-42.290077,87.587784,-69.717560
1.984314,-0.186768,-0.120605,-55.541985,-22.404581,-11.916031
0.965088,0.260010,0.006592,14.938931,-42.984734,-75.320610
0.729736,1.052979,-0.086182,86.305344,-22.381680,8.709924
1.170898,1.626709,-0.115234,72.442749,2.061069,59.984734
1.452881,1.400146,-0.026367,21.442749,-40.900764,52.687023
1.676270,0.974365,0.236572,-11.977099,-55.473282,51.061069
1.824463,0.650146,0.271484,-23.106871,-52.488548,41.519085
1.779785,0.409912,0.185791,-23.206106,-47.099236,16.396946
1.616455,0.244629,0.346924,-17.000000,-25.763359,-6.557252
1.334473,0.089600,0.480225,-0.274809,-5.274809,-6.358778
1.134766,0.113525,0.586426,22.549618,15.145039,5.763359
1.014648,0.332031,0.544922,61.496181,31.519083,1.885496
0.950928,0.567139,0.320313,73.412216,36.641220,-1.862595
0.891846,0.718750,0.203857,64.496185,40.274811,1.984733
0.836182,0.757812,0.130859,46.595421,36.618320,8.877863
0.770752,0.652588,0.032715,21.229008,24.465649,9.000000
0.723145,0.438721,-0.024414,-5.038168,11.183207,4.374046
0.734131,0.238037,0.027588,-20.030535,2.320611,-3.702290
0.756836,0.092041,0.013184,-26.183207,-3.557252,-12.580153
0.767578,0.058838,0.112305,-23.106871,-0.740458,-19.091602
0.738525,0.098389,0.085205,-8.053435,2.992366,-17.977098
0.722168,0.185547,0.114990,4.412214,14.389313,-14.335877
0.687744,0.343018,0.037842,17.450382,21.893129,-14.480916
0.611084,0.424072,-0.021484,19.007633,22.091602,-13.511451
0.547607,0.384033,0.061035,14.374045,21.511450,-10.297709
0.500732,0.245850,0.168945,11.282443,18.137405,-6.412214
0.448242,0.134766,0.228027,13.954199,18.404581,-7.473282
0.398926,0.141846,0.226807,14.122137,17.435114,-6.977099
0.360352,0.177002,0.164551,10.610687,12.167939,-12.007633
0.339844,0.225830,0.100098,0.251908,5.442748,-8.229008
0.350342,0.272461,0.030273,-6.854962,-2.320611,-6.862596
0.351074,0.201416,0.001709,-11.267176,-6.083970,-3.343511
0.348633,0.150635,-0.008789,-8.152672,-3.908397,0.106870
0.355713,0.117920,-0.029541,-3.259542,1.961832,2.190840
0.301025,0.061035,-0.025146,-3.137405,5.175572,3.557252
0.222900,0.047119,-0.088135,-4.259542,-1.099237,2.549618
0.178711,0.019775,-0.107666,-2.312977,-12.007633,1.786260
0.179932,0.018555,-0.137207,-3.030534,-20.603054,6.847328
0.184570,0.032959,-0.166504,-1.061069,-27.839695,6.198473
0.147949,-0.073730,-0.094482,7.099236,-22.625954,19.282442
0.183105,-0.042480,-0.155029,17.412214,-13.045801,28.526718
0.148682,0.008057,-0.245117,20.748091,-12.778625,28.274809
0.245361,0.557129,-0.710937,-111.709923,-4.473282,24.778625
0.154297,0.169678,-0.389893,-57.267174,-61.648853,69.854965
0.692139,0.217285,-0.136230,-73.572517,-108.404579,51.557251
0.970703,0.056885,0.014160,-27.984734,-143.206100,3.419847
1.108887,0.082275,0.148437,-16.000000,-117.633591,-10.000000
1.077148,0.025635,0.133301,7.732824,-77.259544,5.847328
1.063965,-0.043945,0.249023,27.381680,-31.251909,32.709923
1.143555,-0.121826,0.492187,80.206108,24.580153,21.557251
1.042480,0.278320,0.389893,67.854965,37.458015,0.641221
1.025146,0.564697,0.451660,52.977100,26.877863,11.786260
1.265381,0.842285,0.686768,-0.137405,31.549618,29.893129
1.984314,1.300049,0.762695,-29.137405,248.175568,-112.580154
1.984314,1.439697,1.005859,-27.190840,180.229004,-46.572517
1.984314,1.400635,0.794922,-50.083969,149.633591,-100.030533
1.984314,0.786377,0.289795,-45.183205,67.389313,-67.473282
1.803711,0.088135,-0.488525,-68.755722,-6.885496,-46.152672
1.309082,0.543213,-0.569092,-1.351145,-76.603050,-115.183205
1.478760,1.373047,-0.418945,56.206108,-22.832062,30.488550
0.948242,1.252686,-0.115967,51.374046,-69.748093,33.931297
1.373779,1.125977,0.127930,26.091602,-59.061069,63.923664
1.533691,0.993896,0.216553,5.511450,-82.435112,79.862595
1.665283,0.583252,0.333252,-6.946565,-95.694656,38.351147
1.830566,0.397949,0.238770,-46.664124,-104.435112,-20.923664
1.635498,0.136230,0.503662,-42.297710,-64.442749,-28.198473
1.506836,0.084229,0.419434,-17.557251,-2.038168,-22.351145
1.246826,0.135254,0.402100,20.694656,32.992367,-19.847328
0.953369,0.314697,0.294922,58.007633,56.297710,-13.847328
0.801270,0.556885,0.136230,77.442749,61.526718,-5.206107
0.719482,0.677002,0.007080,70.022903,57.809162,-2.083969
0.650391,0.617432,-0.044189,49.450382,39.694656,-2.564885
0.624268,0.471191,-0.057129,32.351147,21.961832,-3.305344
0.654785,0.343262,-0.089111,13.679389,9.183207,-5.908397
0.700439,0.224121,-0.083984,-1.152672,1.389313,-9.351145
0.709961,0.138672,0.006348,-6.740458,4.129771,-15.106871
0.646240,0.032227,0.087402,-6.343512,8.679389,-15.679389
0.552490,-0.016357,0.090088,1.603053,12.534351,-16.076336
0.471191,0.007813,0.077148,13.984733,18.282442,-11.801527
0.441650,0.171143,0.036133,23.549618,16.038168,-6.374046
0.458252,0.365234,-0.043701,30.473282,10.603053,-7.045802
0.464844,0.445068,-0.114990,23.045801,6.190840,-3.167939
0.441406,0.416504,-0.079834,14.687023,5.312977,3.328244
0.385010,0.250244,0.011475,11.251908,3.045802,5.732824
0.369141,0.151855,0.029785,8.671756,-6.198473,6.694656
0.393066,0.146973,0.058350,10.091603,-12.961832,0.931298
0.414307,0.192871,0.040039,8.511451,-14.091603,-1.709924
0.425293,0.242432,0.041504,5.068702,-15.648855,-4.977099
0.415771,0.180176,0.104004,0.389313,-16.183207,5.198473
0.449951,0.234131,0.140381,-2.351145,-13.770992,5.862596
0.470947,0.251709,0.133057,0.610687,-15.259542,5.633588
0.463867,0.246094,0.080078,3.328244,-17.511450,4.793893
0.477539,0.203125,0.087402,6.587786,-17.763359,6.511450
0.492920,0.250732,0.103760,11.664123,-15.106871,7.183206
0.442627,0.582520,-0.168945,-46.236641,-10.694656,27.557251
0.526611,0.228027,0.156494,-13.893129,-11.419847,62.954197
0.656494,0.268311,-0.103271,-39.618320,-20.786259,26.664122
0.472900,0.111816,0.093262,-24.404581,-18.648855,2.641221
0.468506,0.095459,-0.010986,-33.259541,-27.664122,15.374045
0.528564,0.151855,-0.045654,-37.671757,-30.167938,30.053434
0.621094,0.236328,-0.038330,-43.335876,-24.572519,24.725191
0.609131,0.258789,0.014648,-41.068703,-16.366413,19.893129
0.644043,0.328125,0.029053,-44.480915,-11.091603,22.167938
0.731201,0.378418,0.164307,-36.847328,-4.496183,29.824427
0.994629,0.547363,0.171631,-51.145039,-4.000000,42.503819
1.984314,1.454102,1.069824,-42.442749,90.603050,-49.404579
1.872070,0.535889,0.210205,-13.396947,165.938934,-130.015274
1.984314,1.687012,0.780762,-30.786259,184.587784,-92.610687
1.984314,0.720703,0.002197,-64.877861,98.282440,-8.450381
1.575684,-0.083740,-0.365479,-36.770992,-9.213740,-31.099237
1.175781,0.142334,-0.034668,21.984734,-19.847328,-27.129770
0.844727,0.989746,0.072266,42.603054,-41.709923,-22.183207
0.972656,0.925049,0.235107,35.480915,-36.091602,21.183207
1.160889,0.888428,0.207031,28.404581,-42.335876,41.404579
1.345215,0.875732,0.204590,17.091602,-55.557251,55.725189
1.442871,0.666748,0.144287,5.648855,-79.702293,47.137405
1.524902,0.567139,0.114990,-0.145038,-92.137405,26.251909
1.632324,0.606689,0.077881,-9.412213,-89.816795,-7.549618
1.447021,0.421387,0.163818,-30.259542,-61.664124,-17.832062
1.289795,0.351074,0.235352,-49.419846,0.732824,12.450381
1.045898,0.301758,0.390381,-7.847328,29.450382,16.816793
0.842529,0.361572,0.220703,25.122137,29.954199,1.954198
0.769043,0.418213,0.154785,31.137405,25.229008,-0.496183
0.799316,0.491699,0.099609,24.557251,21.549618,8.450381
0.889160,0.579102,0.102051,13.419847,11.572519,7.358778
0.945801,0.567139,0.049805,-2.175573,4.152672,1.564885
0.932617,0.464844,0.046387,-16.557251,3.328244,-2.450382
0.869629,0.276123,0.010986,-28.709923,2.022901,-3.984733
0.802734,0.061523,0.063477,-32.809162,2.000000,-8.389313
0.764404,-0.101807,0.177490,-23.564886,2.633588,-13.320611
0.741211,-0.081299,0.187012,-1.946565,4.938931,-16.259542
0.758545,0.078369,0.189697,18.175573,16.786259,-16.656488
0.783691,0.283203,0.109131,28.236641,28.488550,-15.129771
0.749756,0.456055,0.070312,25.114504,38.770992,-12.763359
0.631592,0.492432,-0.002686,15.167939,39.664124,-8.282443
0.508545,0.396240,0.076904,2.190840,30.045801,-1.404580
0.433838,0.272461,0.113770,-0.526718,15.549619,-0.213740
0.421143,0.185791,0.117188,9.610687,6.580153,-3.587786
0.420654,0.098633,0.064941,16.687023,0.106870,-6.564886
0.440918,0.097656,0.083008,22.671755,4.076336,-4.404580
0.461670,0.176514,0.061035,31.809160,3.145038,-2.045802
0.523437,0.250000,-0.041016,30.000000,2.709924,-4.862596
0.514893,0.319092,-0.030518,20.572519,11.396947,0.320611
0.428955,0.274902,-0.090576,12.030535,8.442748,4.923664
0.377686,0.184082,-0.028320,5.725191,3.938931,6.076336
0.362305,0.163330,-0.020264,13.290076,-5.213740,5.587786
0.400391,0.246338,-0.007080,20.984734,-13.259542,-0.618321
0.418457,0.314941,-0.007568,26.610687,-13.633588,4.122138
0.423828,0.394775,-0.067627,17.549618,-11.679389,6.312977
0.418701,0.360352,-0.083252,2.167939,-14.419847,8.358779
0.427490,0.265625,-0.061768,-9.992367,-22.702290,9.809160
0.505127,0.170898,-0.058350,-17.083969,-31.328245,10.587787
0.461426,0.212646,-0.094971,-82.007637,-30.160305,31.038168
0.697510,0.011719,0.113281,-7.343512,-9.488549,57.694656
0.716064,0.160156,0.142090,-17.618320,-8.977099,9.366412
0.516602,0.157959,0.125000,11.832061,6.374046,6.778626
0.481689,0.316162,0.172119,-0.251908,28.297710,17.847328
0.440430,0.330811,0.137695,-18.335878,24.015266,28.916031
0.477295,0.265625,0.237305,-23.801527,16.366413,21.206106
0.588379,0.333496,0.536377,-28.954199,19.068703,28.366413
1.984314,1.282715,1.279785,-15.839695,69.923668,10.106871
1.984314,0.914551,0.858154,-2.099237,239.717560,-92.946564
1.984314,1.984314,1.506104,31.595419,216.358780,-79.748093
1.984314,1.331299,0.639160,9.480916,110.969467,-40.145039
1.758545,-0.223145,-0.991211,-116.603050,-7.229008,-1.541985
1.636475,-0.927002,-0.336670,-72.694656,-5.099236,-29.068703
1.175049,0.341797,-0.026855,33.099236,-62.022900,-62.145039
0.911133,1.118896,0.201416,49.893131,-58.793892,-11.603053
1.207275,0.984131,0.214600,24.679390,-37.068703,52.847328
1.279785,0.814697,0.258301,22.687023,-71.374046,53.015266
1.449463,0.766846,0.207031,15.702291,-93.847328,37.656490
1.583008,0.659668,0.206543,-5.748092,-107.992363,27.083969
1.630859,0.602539,0.135498,-34.900764,-124.389313,-14.114504
1.509521,0.284912,0.201904,-57.946564,-111.847328,-40.603054
1.465820,0.133301,0.334229,-67.992363,-48.618320,-34.290077
1.250244,0.213867,0.376953,-63.015266,8.511451,-10.610687
0.955078,0.501709,0.447754,-29.061069,44.053436,4.541985
0.726807,0.671631,0.298828,-2.496183,48.328243,6.022901
0.645264,0.676270,0.189941,-0.076336,25.603054,-0.534351
0.618164,0.571777,0.146240,-1.503817,2.114504,1.801527
0.734863,0.531494,0.226318,3.656489,-10.977099,5.984733
0.806152,0.420166,0.226807,10.129771,-13.038168,0.297710
0.781494,0.288574,0.263672,13.458015,-4.435114,-6.000000
0.700195,0.161377,0.182617,11.832061,-4.809160,-13.572519
0.637695,0.046631,0.031738,-5.106870,-5.679389,-13.633588
0.625732,0.133545,0.020020,-7.022901,-6.900764,-11.129771
0.718018,0.370850,-0.020264,1.786260,-4.450382,-10.938931
0.751953,0.453125,-0.063232,8.091603,2.213740,-13.320611
0.640137,0.311035,0.022461,9.229008,10.717557,-11.419847
0.484619,0.147949,0.106689,15.984733,11.603053,-7.923664
0.405273,0.144775,0.139404,24.427481,6.251908,-4.297710
0.400635,0.190674,0.086182,22.442749,-6.732824,-3.633588
0.434570,0.244385,0.052734,10.488549,-17.045801,-2.160305
0.506836,0.269775,0.012695,1.564885,-22.717558,-2.465649
0.577393,0.238525,-0.025635,-8.320611,-22.526718,0.206107
0.587891,0.196777,0.031738,-10.839695,-19.770992,1.587786
0.558350,0.140625,0.102051,-4.885496,-17.847328,-0.488550
0.492187,0.093262,0.145752,1.641221,-15.755725,4.351145
0.431152,0.121582,0.110352,8.137404,-17.175573,6.251908
0.402100,0.159668,0.077148,5.190840,-20.671755,8.458015
0.411133,0.237793,-0.048096,1.381679,-26.083969,11.847328
0.443848,0.229248,-0.044922,-1.977099,-24.854961,20.496183
0.476074,0.243652,-0.008301,-6.778626,-24.274809,20.251909
0.467041,0.211182,0.069824,-1.160305,-23.709923,15.198473
0.440918,0.150391,0.068848,3.213740,-25.122137,11.465649
0.405273,0.153076,0.051758,5.190840,-23.419847,10.725191
0.397461,0.166504,-0.002197,-2.732824,-22.916031,9.549619
0.406982,0.272949,-0.076416,-9.977099,-28.244274,7.442748
0.357422,0.470459,-0.217041,-56.564884,-26.167938,29.793894
0.552490,0.344482,0.015869,-30.106871,-7.320611,63.984734
0.620605,0.365479,-0.046387,-23.580153,-19.465649,19.061069
0.457520,0.259033,0.070312,-4.748092,-19.061069,5.648855
0.518311,0.235107,0.153564,6.969466,-12.251908,22.480917
0.795166,0.463623,0.098145,3.351145,-28.053434,13.549619
1.984314,1.167236,0.995117,0.396947,57.030533,-74.931297
1.547852,0.389893,0.520020,-19.625954,169.709930,-88.816795
1.984314,1.265137,0.887451,27.335878,248.175568,-12.152672
1.984314,1.327881,1.216309,-38.938931,104.488548,-101.954201
1.984314,0.591797,-0.079590,-39.511452,10.129771,-57.251907
1.353271,-0.300049,-0.175293,-21.664122,-17.427481,-7.267176
0.812988,0.247559,-0.077881,20.709923,-30.702290,-43.488548
0.884277,1.148682,-0.290283,37.877861,-37.938931,-17.366413
1.089355,0.949219,0.148193,27.938931,-16.877863,35.496181
1.237061,0.781738,0.216797,24.954199,-41.618320,40.839695
1.425537,0.724365,0.248047,21.374046,-55.427483,43.015266
1.537354,0.598389,0.227295,1.297710,-78.793892,45.213741
1.506836,0.636719,0.220703,17.458015,-87.984734,23.740458
1.505371,0.440186,0.010986,2.839695,-102.786263,-1.419847
1.574707,0.469727,0.052734,-42.633587,-75.419846,-4.343512
1.352295,0.364990,0.283691,-46.656490,-40.458015,-13.664123
1.186523,0.332031,0.365479,-16.748091,12.335877,-7.770992
1.031494,0.451904,0.268066,18.870230,31.122137,4.916030
0.925049,0.585693,0.295654,39.259541,46.541985,7.152672
0.819092,0.614746,0.251953,37.931297,47.259541,7.053435
0.777588,0.594482,0.148193,23.900763,31.839695,7.389313
0.804443,0.537109,-0.013428,8.633588,11.465649,2.389313
0.884521,0.461426,-0.027100,-6.465649,4.656488,-4.358778
0.936768,0.427002,0.022217,-9.862596,6.709924,-9.893129
0.917480,0.349854,0.027588,-8.106871,10.160305,-13.877863
0.793945,0.198242,0.104004,-5.816794,20.847328,-14.557252
0.633545,0.091309,0.204102,2.351145,30.167938,-10.862596
0.511230,0.138916,0.163818,15.007633,30.908398,-9.687023
0.450684,0.226807,0.094238,19.114504,24.610687,-10.213740
0.450195,0.313965,0.026611,11.473283,17.938931,-7.938931
0.462158,0.347168,-0.066895,0.442748,10.931297,-4.954198
0.486084,0.273926,-0.052490,-10.374045,3.763359,-3.183206
0.514404,0.195557,0.061035,-6.694656,1.641221,-3.572519
0.536377,0.147461,0.137207,3.839695,4.610687,-5.396946
0.519287,0.138184,0.120117,12.473283,7.198473,-6.328244
0.466064,0.113037,0.095459,16.435114,8.351145,-3.801527
0.427246,0.119873,0.059082,16.091602,9.961832,-1.412214
0.386230,0.120605,0.071777,14.099236,6.847328,2.022901
0.378418,0.152588,0.043945,9.916031,-0.557252,10.763359
0.392822,0.139160,0.045410,3.969466,-4.496183,12.244275
0.358154,0.100098,0.056885,1.877863,-4.709924,12.038168
0.308838,0.167725,0.017334,2.167939,-4.519084,13.908397
0.273926,0.216553,-0.055176,1.893130,-6.206107,13.519084
0.283691,0.231934,-0.167236,-2.045802,-10.473283,19.267176
0.333008,0.229736,-0.163330,-3.587786,-16.870230,15.702291
0.394531,0.234863,-0.199707,2.427481,-29.045801,10.870229
0.452637,0.267578,-0.176514,7.213740,-28.870230,6.969466
0.489014,0.260254,-0.141357,10.755725,-24.877863,4.900764
0.371338,0.395996,-0.230225,-56.503819,-14.732824,27.374046
0.481445,-0.010254,0.170166,-10.366412,5.198473,77.885498
0.607422,0.154785,-0.104492,-22.709923,-11.488549,18.954199
0.408203,0.187744,0.037598,-6.786260,-27.000000,-0.442748
0.562500,0.251221,0.270752,-18.061069,-18.366413,18.923664
0.720215,0.304443,0.396484,-16.190840,1.687023,33.870228
0.964600,0.593994,0.441895,-14.778625,-0.740458,4.175572
1.984314,0.959961,0.905762,-21.770992,212.335876,-168.061066
1.984314,0.981689,1.583252,23.389313,231.274811,14.442748
1.984314,1.984314,1.222412,-78.381676,156.259537,-108.648857
1.984314,0.625977,0.193848,-1.862595,34.374046,-63.435116
1.526367,-0.149902,-0.815186,-113.511452,-33.435116,-16.022902
0.861328,-0.052979,-0.345947,-14.053435,-20.198473,-2.015267
1.011230,1.389404,-0.510010,75.465652,-54.259541,-27.419847
1.063721,1.322754,-0.109131,51.885498,-17.305344,30.916031
1.219238,0.821533,0.137451,22.236641,-20.954199,71.000000
1.342529,0.617920,0.372803,11.442748,-46.114502,58.259541
1.526611,0.378662,0.427246,15.572519,-73.091606,40.519085
1.568848,0.300049,0.380371,0.709924,-88.114502,20.801527
1.601807,0.494629,0.373047,18.022902,-83.610687,-9.595420
1.555420,0.571533,0.258057,2.312977,-76.106873,-24.213741
1.428955,0.456299,0.355469,-14.801527,-18.854961,-7.786260
1.230469,0.398926,0.442139,5.122138,27.572519,12.091603
1.012695,0.537842,0.388672,32.877861,39.671757,12.549619
0.897949,0.693115,0.202637,45.618320,31.870230,6.717557
0.911621,0.802979,0.019287,36.893131,19.664122,8.679389
0.941162,0.785400,-0.018799,16.259542,15.664123,7.083970
0.893066,0.625488,0.001465,-3.305344,8.061069,2.053435
0.838379,0.408447,0.064697,-14.748092,-1.534351,-2.603053
0.797363,0.192627,0.115967,-22.022902,-6.274809,-7.954198
0.773926,0.052734,0.238525,-22.938931,-1.244275,-12.610687
0.717529,0.107910,0.210449,-12.870229,4.274809,-8.129771
0.703369,0.292969,0.099365,-7.320611,6.862596,-6.809160
0.647461,0.349854,0.029541,-8.366412,9.343512,-4.854962
0.580811,0.327881,0.029541,-8.900764,12.664123,-1.854962
0.501465,0.237549,0.023193,-8.885496,10.526717,-1.908397
0.437988,0.134033,0.055176,-7.641222,7.076336,0.183206
0.415771,0.100342,0.080322,3.526718,3.832061,1.152672
0.439941,0.124756,0.068848,12.511451,4.297710,-0.427481
0.471436,0.220215,0.089844,10.465649,3.732824,-4.282443
0.495605,0.352295,0.014893,6.931298,-4.381680,-5.847328
0.543945,0.400391,0.030518,-5.236641,-8.702291,-5.458015
0.558350,0.354248,0.116699,-11.488549,-7.374046,-0.335878
0.522217,0.240967,0.144287,-12.694656,-5.832061,4.511450
0.454834,0.128418,0.111816,-12.854961,-6.053435,3.984733
0.371582,0.080566,0.032227,-13.022901,-8.396947,3.694656
0.335693,0.057861,-0.004150,-9.389313,-9.740458,7.458015
0.312988,0.098633,-0.030762,-8.839695,-14.580153,7.122138
0.278076,0.057861,-0.062500,-6.595420,-16.274809,6.946565
0.277100,0.044922,-0.056396,-2.000000,-17.396946,8.992367
0.307129,0.041260,-0.117432,6.732824,-21.717558,7.633588
0.265625,-0.004639,-0.141113,7.335878,-26.702290,11.229008
0.328369,0.135986,0.003418,15.786260,-23.236641,17.732824
0.423340,0.238770,0.003662,19.381680,-26.351145,17.916031
0.414551,0.414551,-0.096924,-8.206107,-20.206106,26.923664
0.222168,0.185303,0.249756,-67.839691,-31.358778,55.183205
0.539795,-0.028564,-0.072754,-31.320610,-43.480915,67.083969
0.633057,0.003906,0.241455,-27.068703,-37.702290,11.847328
0.601318,0.074219,0.070312,12.213740,-49.305344,3.091603
0.746094,0.137451,0.235840,31.702290,-31.770992,10.809160
0.916504,0.241211,0.173096,26.809160,-12.870229,14.160305
0.968262,0.453369,0.112305,-1.221374,-2.763359,13.061069
0.995361,0.460693,0.092041,-29.038168,-1.145038,16.763359
1.582275,0.451416,0.475098,-40.671757,10.259542,9.473283
1.984314,0.223877,0.624756,-10.580153,207.488556,-134.534348
1.982910,0.827881,1.544922,14.473283,161.893127,-98.007637
1.984314,1.560791,1.035889,-9.259542,192.068695,-91.389313
1.984314,1.021484,0.506104,-73.030533,21.122137,-128.091599
1.660645,0.061035,-0.532471,-118.274811,-4.152672,-33.335876
0.917969,0.569824,-0.757324,-34.709923,-14.427481,-31.557251
0.776611,1.548340,-0.698486,70.480919,-25.458015,7.000000
1.002930,1.811768,-0.141846,78.557251,-15.290076,47.862595
1.122314,1.244141,0.221680,44.648853,-43.267174,78.427483
1.451416,0.778564,0.418213,38.053436,-62.824429,89.152672
1.559082,0.625488,0.476318,8.725191,-98.625954,71.274811
1.706787,0.437744,0.496338,-10.435115,-107.114502,61.015266
1.795410,0.418213,0.416748,-36.152672,-109.786263,7.740458
1.621826,0.182861,0.445557,-40.511452,-71.770996,-25.328245
1.361084,-0.004639,0.344971,-25.091602,-16.145039,-12.244275
1.146240,0.076172,0.356201,9.198473,14.366412,2.343511
0.995117,0.342773,0.369141,49.740459,31.656488,-0.244275
0.932129,0.640625,0.229004,72.854965,38.122139,-1.526718
0.859619,0.816650,0.021973,63.106869,44.442749,6.557252
0.756592,0.729980,-0.074951,25.503817,33.832062,21.534351
0.707764,0.533203,-0.031250,7.435114,12.923664,19.961832
0.735107,0.282227,-0.085205,2.557252,-7.458015,5.961832
0.815674,0.098877,-0.034180,11.366412,-14.610687,-10.534351
0.862549,0.001953,-0.040283,18.564886,-8.664123,-19.694656
0.861572,0.061523,-0.009766,19.137405,4.595420,-19.671755
0.791992,0.118652,0.013428,14.786260,13.175572,-10.916031
0.697998,0.184326,0.032715,10.801527,18.343512,-5.267176
0.592041,0.217529,0.040283,12.099236,18.419847,-6.709924
0.485352,0.232422,0.014648,16.381680,15.664123,-8.450381
0.415039,0.229248,0.029297,23.068703,12.427481,-6.618320
0.381348,0.234863,-0.015381,32.190838,8.351145,-4.763359
0.393555,0.249756,-0.028564,32.106869,4.534351,-5.633588
0.430176,0.318604,-0.018555,27.587786,-2.656489,-6.160306
0.454590,0.370605,-0.034912,14.290076,-5.816794,-7.961832
0.410645,0.290527,0.016602,-4.694656,-7.488550,-5.938931
0.352295,0.193115,0.048096,-15.000000,-13.038168,-1.404580
0.343994,0.126709,0.034180,-17.610687,-21.770992,1.435115
0.361572,0.063721,-0.030029,-16.488550,-28.961832,2.213740
0.392578,0.039551,-0.039551,-9.763359,-27.770992,1.030534
0.372559,0.047363,0.011719,4.679389,-23.259542,-1.839695
0.344238,0.093750,-0.014893,21.190840,-21.450382,-2.687023
0.284912,0.100586,-0.018799,21.305344,-16.305344,6.526718
0.285889,0.165039,-0.070312,17.190840,-15.908397,9.893129
0.307373,0.262451,-0.113770,7.412214,-23.335878,5.374046
0.337158,0.193115,-0.083252,-3.450382,-39.213741,3.809160
0.420654,0.085205,0.036865,-4.221374,-40.541985,6.748092
0.501709,0.088379,0.117920,9.931297,-36.534351,5.396946
0.500732,0.440674,-0.218018,-25.954199,-19.396946,32.351147
0.374268,0.192139,0.320068,-22.541985,-32.938931,63.641220
0.683594,0.062500,-0.110840,-15.000000,-44.435116,42.442749
0.666016,0.106445,0.114990,-12.603053,-42.763359,-3.175573
0.706299,0.089844,-0.077393,-5.908397,-46.877861,2.045802
0.857910,0.184326,-0.060791,5.549618,-28.770992,12.832061
1.047607,0.354980,-0.090088,-6.122138,-20.022902,13.954199
1.483643,0.517090,0.030762,-8.809160,-5.725191,0.595420
1.984314,0.364746,0.057373,-11.137404,196.801529,-127.519081
1.596924,0.763672,0.298096,17.824427,123.251907,-77.488548
1.766846,1.017090,0.294678,-37.687023,129.679382,-105.824425
1.984314,1.371338,0.252930,-53.297710,143.587784,-62.961834
1.984314,0.958496,0.532471,-74.389313,70.648857,-85.977097
1.532227,0.674561,0.145996,-68.740456,21.648855,-61.908398
0.959717,0.576172,0.059082,-32.702290,5.992366,-36.297710
0.700195,0.746094,-0.088867,-7.076336,3.419847,-26.282442
0.959473,1.011475,0.134277,7.893130,-2.145038,2.259542
1.114014,0.794189,0.228271,40.000000,-12.320611,27.366413
1.154541,0.860596,0.243896,50.251907,-38.190838,33.236641
1.305176,0.736572,0.324707,48.213741,-62.190838,48.732826
1.400879,0.710937,0.241943,44.389313,-77.099236,49.809162
1.400146,0.722412,0.219238,17.335878,-91.740456,49.076336
1.406006,0.627441,0.235596,-0.923664,-92.374046,51.229008
1.453857,0.528076,0.246582,-14.732824,-76.923668,51.450382
1.541504,0.586914,0.255615,-9.480916,-52.801525,28.083969
1.355713,0.462646,0.225342,-0.312977,-0.793893,2.335878
1.055420,0.371094,0.160645,8.984733,19.671755,9.106871
0.916504,0.384277,0.101807,9.679389,26.198473,17.557251
0.896729,0.384033,-0.002930,4.763359,18.702290,13.183207
0.912598,0.406982,-0.028564,0.603053,22.007633,9.580153
0.908203,0.439941,-0.089355,2.503817,25.748091,7.977099
0.863037,0.429932,-0.156494,3.946565,26.129770,6.977099
0.808594,0.377197,-0.110840,7.519084,26.419847,5.229008
0.742187,0.296143,-0.068604,13.320611,26.809160,2.854962
0.711426,0.241943,0.034424,11.458015,21.618320,1.938931
0.685547,0.278564,0.077393,16.763359,18.427481,-1.312977
0.667725,0.272217,-0.039307,9.618320,9.687023,-1.175573
0.655762,0.237549,-0.092773,-2.603053,3.847328,0.206107
0.652100,0.262451,-0.052246,-7.564886,5.847328,2.755725
0.641602,0.291992,-0.041504,-4.587786,8.267176,1.511450
0.578369,0.254883,-0.049805,-4.122138,10.977099,-2.206107
0.495361,0.181885,0.020752,-2.396947,12.229008,-3.557252
0.430908,0.143555,0.093262,3.320611,10.564885,-2.557252
0.416016,0.209717,0.064697,8.236641,4.587786,-1.748092
0.435059,0.292725,-0.000732,7.190840,-1.725191,-1.824427
0.449707,0.305176,-0.019531,1.053435,-2.557252,-1.229008
0.426758,0.242187,-0.041260,-3.061069,-2.038168,0.198473
0.406006,0.152100,-0.050781,-6.145038,-3.885496,1.244275
0.385498,0.092285,-0.071289,-5.091603,-6.946565,0.267176
0.394531,0.076904,-0.021484,-1.534351,-10.358779,-0.763359
0.395752,0.095947,0.027832,3.053435,-10.458015,-0.641221
0.402344,0.122559,-0.009277,4.824428,-10.603053,1.083969
0.410156,0.133789,-0.000488,-0.358779,-10.679389,5.442748
0.427246,0.138672,0.033447,-4.114504,-11.129771,6.961832
0.436035,0.119629,0.018555,-4.641222,-12.893129,4.923664
0.444336,0.098877,-0.021729,-4.702290,-13.931297,-0.038168
0.449951,0.120850,-0.041016,-1.152672,-15.389313,-1.931298
0.500244,0.220459,-0.026611,7.297710,-15.687023,-1.870229
0.447998,0.512695,-0.296387,-61.419846,-14.076336,25.748091
0.622559,0.226074,0.079834,-13.389313,-2.160305,73.351143
0.861816,0.350830,-0.303955,-22.572519,-25.511450,10.496183
0.697021,0.225098,-0.139404,-22.511450,-37.916031,-18.068703
0.741211,0.123047,-0.024414,-21.381680,-23.404581,4.229008
0.911133,0.154541,0.143799,-11.671756,-6.702290,14.893129
1.178711,0.379639,0.192139,0.541985,-3.442748,-9.870229
1.984314,0.821533,0.554687,-20.534351,131.885498,-133.229004
1.450195,0.222656,0.752441,-20.290077,184.954193,21.732824
1.984314,0.960937,0.334961,-47.282444,182.900757,-48.847328
1.984314,0.919678,0.955078,-26.877863,75.320610,-144.603058
1.975098,0.998291,0.434814,-53.343510,38.274811,-70.572517
1.215820,0.674316,-0.128906,-56.396946,9.877863,-29.816793
0.603027,0.760498,-0.141113,-24.832062,1.282443,-18.030535
0.611084,1.111572,0.051758,3.870229,6.679389,5.961832
1.020264,0.898926,0.262695,22.015266,-0.305344,27.366413
1.146484,0.761719,0.284912,27.343512,-20.083969,36.450382
1.259033,0.580811,0.379639,32.419846,-37.198475,47.854961
1.317871,0.532471,0.320313,31.786259,-54.862595,45.450382
1.285400,0.564453,0.281006,11.091603,-70.839691,35.435116
1.297119,0.510742,0.294922,-2.038168,-69.190842,33.175571
1.318115,0.534180,0.229980,-14.335877,-63.213741,22.145039
1.270996,0.464600,0.270996,-12.511451,-34.969467,5.022901
1.146729,0.385010,0.170410,-2.183206,-4.809160,6.328244
1.001221,0.444824,0.172363,7.389313,7.801527,14.954199
0.912842,0.477295,0.114502,13.473283,7.702290,14.885496
0.900391,0.478027,0.075439,8.687023,3.809160,12.786260
0.918213,0.412842,0.060547,6.496183,3.312977,10.480916
0.956055,0.384277,0.034180,4.343512,3.030534,9.244275
1.004639,0.411621,-0.006836,4.610687,7.526718,4.908397
1.049072,0.404541,-0.018311,4.969466,6.580153,0.816794
1.074219,0.366699,0.024658,4.045802,7.404580,-2.015267
1.072754,0.358887,0.073242,4.572519,8.267176,-1.648855
1.044922,0.342041,0.115479,3.381679,10.992367,-0.801527
0.977539,0.262207,0.165527,-2.045802,9.862596,2.557252
0.896973,0.246338,0.262695,4.511450,13.305344,4.221374
0.827393,0.280273,0.226074,15.541985,15.687023,0.946565
0.769775,0.299561,0.158203,19.969465,16.755726,-3.908397
0.697510,0.315430,0.125488,16.503817,20.854961,-4.694656
0.633301,0.332520,0.111816,12.595420,21.351145,-1.946565
0.583008,0.331787,0.057617,6.709924,18.007633,-0.259542
0.535645,0.298584,0.029297,0.763359,12.931297,-1.007634
0.523682,0.254395,0.047852,-0.916031,6.893130,-2.458015
0.524902,0.223389,0.047119,1.450382,3.702290,-4.664122
0.523926,0.188232,0.057373,3.251908,2.862595,-6.068702
0.517578,0.186523,0.060059,5.900764,3.076336,-4.038168
0.536133,0.247803,0.054687,8.122137,1.946565,0.167939
0.558350,0.318848,-0.000244,8.442748,-1.587786,1.580153
0.568604,0.329346,-0.027832,4.984733,-4.083970,1.091603
0.551514,0.283203,-0.047119,0.931298,-5.091603,1.328244
0.521973,0.225586,-0.040527,0.038168,-5.755725,2.267176
0.496094,0.176025,-0.038818,-0.732824,-5.862596,1.488550
0.454834,0.129150,-0.041260,-1.099237,-9.099236,1.137405
0.429199,0.118164,-0.076904,-1.083969,-13.931297,2.503817
0.417480,0.130127,-0.119385,-0.045802,-18.022902,3.648855
0.425537,0.173096,-0.136719,3.389313,-18.305344,2.450382
0.408936,0.217773,-0.092285,1.190840,-19.091602,6.900764
0.443115,0.225098,-0.011230,4.312977,-22.076336,6.061069
0.460693,0.197754,0.060791,7.374046,-23.061069,1.625954
0.443848,0.140869,0.086670,9.503817,-23.778625,0.465649
0.433838,0.133301,0.085693,9.282443,-24.916031,2.351145
0.453613,0.171387,0.074951,7.938931,-24.816793,3.923664
0.470947,0.268555,0.133789,9.748092,-24.061069,4.000000
0.390625,0.446045,0.148193,-58.473282,-30.824427,45.183205
0.724609,0.183105,0.257324,-27.519083,-14.229008,67.938934
0.823242,0.206543,0.095215,-70.732826,-36.465649,2.045802
0.732178,0.108154,0.147949,-51.862595,-38.625954,-9.519084
0.887207,0.087158,0.197510,-47.061069,-19.038168,9.259542
1.162109,0.199219,0.147461,-28.580153,0.274809,15.725191
1.492188,0.437500,0.283203,-30.893129,9.122137,-25.458015
1.984314,0.229492,0.684814,-43.641220,209.885498,-83.656487
1.984314,1.067627,0.688965,-26.213741,203.419846,-12.587787
1.984314,1.015137,0.874512,-56.045803,84.725189,-126.183205
1.984314,0.694092,0.433105,-72.992363,40.000000,-85.977097
1.381348,0.703125,-0.473389,-65.259544,6.274809,-53.977100
0.845703,0.868652,-0.865723,-20.603054,15.847328,-11.442748
0.945801,1.622803,-0.477051,11.465649,26.442749,17.938931
0.917725,1.070068,0.020752,32.442749,2.770992,36.961834
1.123291,0.828369,0.388428,38.809162,0.885496,62.587788
1.188477,0.796631,0.538818,50.381680,-37.618320,71.435112
1.366943,0.753418,0.618896,43.916031,-59.725189,75.152672
1.547852,0.695557,0.532227,23.687023,-83.190842,58.885498
1.608398,0.254395,0.790527,29.083969,-82.969467,3.229008
1.297607,0.159668,0.379883,-1.687023,-32.870228,26.137405
1.205078,0.442139,0.472168,5.312977,-10.534351,37.473282
1.129150,0.400635,0.344238,11.862596,-13.236641,19.038168
1.011719,0.386230,0.192383,26.541985,-18.091602,4.221374
1.048340,0.482910,0.114014,26.709923,-8.129771,2.893130
1.084229,0.531738,-0.025391,21.106871,-8.213740,5.106870
1.161133,0.591309,-0.084961,14.603053,-7.251908,9.709924
1.232666,0.596191,-0.108887,0.038168,-0.816794,11.526717
1.189453,0.441406,-0.096436,-14.366412,0.328244,12.671756
1.057373,0.293457,0.112793,-13.007633,2.916031,11.702291
0.936279,0.176514,0.203125,8.679389,9.458015,2.717557
0.831543,0.022217,0.151611,15.916031,6.068702,-6.488550
0.734863,-0.083252,0.092773,15.343512,4.458015,-8.618320
0.678711,-0.034180,0.024902,17.954199,6.389313,-5.106870
0.693359,0.184326,-0.039795,22.694656,11.809160,-2.648855
0.674072,0.352295,-0.125977,18.946566,18.061069,-5.389313
0.564697,0.368164,-0.094971,9.847328,20.709923,-3.854962
0.456299,0.316650,-0.016602,6.427481,19.290077,-0.137405
0.399902,0.229736,0.056641,3.824427,12.824428,0.824427
0.399414,0.174072,0.114258,5.137404,-0.038168,-2.022901
0.445312,0.190918,0.088379,4.053435,-9.687023,-5.229008
0.514893,0.267578,0.014893,-2.091603,-12.480916,-3.961832
0.562988,0.324951,-0.040039,-13.038168,-6.870229,-1.427481
0.515381,0.304443,-0.001709,-25.587786,1.908397,-2.877863
0.407959,0.201904,0.038330,-33.809162,0.541985,-4.083970
0.329590,0.103271,0.116455,-35.083969,-4.404580,-2.801527
0.298828,0.054687,0.112549,-27.694656,-11.312977,-1.015267
0.310059,0.044434,0.064453,-18.587786,-17.511450,-1.297710
0.329346,0.054443,-0.014160,-8.343512,-20.671755,-0.282443
0.363770,0.107666,-0.106445,1.893130,-17.961832,0.824427
0.361084,0.163330,-0.164795,2.801527,-17.641222,-5.175572
0.325195,0.122803,-0.145508,2.145038,-20.343512,5.618320
0.410400,0.178955,-0.145996,-1.305344,-22.854961,1.442748
0.465576,0.186035,-0.054932,-7.946565,-30.091602,4.862596
0.493896,0.096191,-0.031982,-19.541985,-34.320610,-1.274809
0.536621,0.116455,0.063477,-18.068703,-31.015266,4.175572
0.605469,0.118408,0.062500,-10.946565,-31.366413,2.549618
0.610596,0.143311,-0.025146,-8.824428,-27.290077,1.587786
0.434326,0.236816,-0.035645,-96.442749,-23.610687,62.961834
0.809082,-0.090088,0.137207,-17.816793,-20.755726,69.877861
0.914062,-0.055908,0.102783,-21.343512,-33.152672,-4.045802
0.833008,0.095215,0.134766,20.793894,-27.977098,-18.389313
0.917236,0.196045,0.212891,19.557251,0.816794,8.633588
0.967285,0.246582,0.135498,3.198473,23.267176,21.022902
0.936768,0.323975,0.355469,-10.480916,29.251909,7.732824
1.226563,0.592529,0.467285,-11.458015,23.511450,-1.946565
1.984314,0.640381,0.559082,-18.694656,177.549622,-132.290070
1.549805,0.857178,0.838867,2.862595,113.732826,-95.557251
1.984314,1.072021,0.948242,-17.786259,194.656494,-26.381680
1.984314,1.022217,0.916016,-37.610687,85.549622,-69.167938
1.984314,0.607178,0.171143,-46.671757,25.709923,-64.435112
1.277344,0.448975,-0.535889,-40.832062,-6.732824,-30.503817
0.816162,0.876221,-0.713135,1.595420,-2.511450,-7.351145
0.985840,1.432617,-0.356934,31.358778,-16.969465,12.687023
1.181396,1.207031,0.002441,37.992367,-14.412213,37.740459
1.352051,0.849365,0.293457,45.244274,-25.763359,61.061069
1.487549,0.754395,0.342773,38.839695,-50.603054,52.122139
1.537109,0.526611,0.373535,3.503817,-67.106873,52.816795
1.653320,0.489258,0.396973,-0.175573,-62.977100,31.152672
1.632080,0.302979,0.408691,-20.977098,-73.832062,-18.717558
1.439697,0.068848,0.582764,-21.557251,-32.770992,-26.900763
1.233154,0.193848,0.536133,9.580153,1.236641,-6.595420
1.123047,0.551514,0.382568,27.725191,13.610687,4.687023
1.061768,0.711182,0.281982,31.687023,15.671756,-1.076336
0.958740,0.647217,0.218262,21.908398,15.022901,-0.175573
0.860352,0.497803,0.208984,9.549619,14.671756,7.664122
0.836182,0.354980,0.205566,-0.549618,9.083969,10.305344
0.892822,0.287109,0.171631,5.106870,-4.297710,5.297710
1.041748,0.316895,0.081055,11.671756,-7.656488,-6.183206
1.119385,0.371582,0.009766,10.809160,1.618321,-14.435115
1.058594,0.291016,-0.029785,1.702290,11.557252,-10.358779
0.916016,0.126953,0.003418,-6.603054,15.793893,-0.030534
0.862305,-0.097412,0.039795,-20.450382,13.488549,7.297710
0.751953,0.185303,0.288086,21.702290,28.274809,2.274809
0.676758,0.273193,0.004395,45.442749,31.793894,-5.175572
0.602051,0.318604,-0.121338,45.809162,27.702290,-6.381680
0.580078,0.435303,-0.102539,39.435116,31.809160,-7.458015
0.528564,0.463135,-0.028809,30.503817,31.358778,-4.809160
0.500000,0.450439,0.037109,14.618320,25.259542,-3.687023
0.460937,0.396973,0.107422,-1.893130,13.091603,-3.793893
0.430908,0.321045,0.136719,-12.458015,4.297710,-4.305344
0.407715,0.233154,0.132080,-20.625954,-0.786260,-3.702290
0.374268,0.145752,0.165283,-22.396946,-1.114504,-3.198473
0.329834,0.112549,0.111084,-15.374045,0.725191,-0.977099
0.324463,0.105225,0.036133,-13.229008,-1.038168,-0.274809
0.340576,0.087891,0.056396,-13.366412,-5.854962,-0.099237
0.380127,0.132080,0.059326,-9.908397,-10.427481,-1.496183
0.378662,0.232666,0.016357,-5.557252,-11.396947,-3.908397
0.325439,0.261963,-0.031006,-0.190840,-5.236641,2.893130
0.270264,0.218262,-0.053223,0.748092,0.549618,9.175572
0.195801,0.176025,-0.109863,-0.496183,-1.061069,7.839694
0.143799,0.152344,-0.126221,-2.809160,-10.687023,4.190840
0.125000,0.102295,-0.145752,-6.648855,-24.717558,0.114504
0.136475,0.010742,-0.113525,-9.671756,-35.709923,-0.770992
0.168457,-0.040527,-0.135254,-6.366412,-46.183205,3.374046
0.221924,-0.073730,-0.180908,-4.343512,-51.633587,11.297709
0.273193,-0.054199,-0.367676,-2.977099,-51.916031,6.236641
0.310547,0.157715,-0.477295,-11.282443,-48.992367,13.877863
0.491211,0.482178,-0.537354,-40.229008,-59.083969,25.381680
0.475098,0.420166,-0.157715,-174.076340,-115.007637,82.198471
1.018555,-0.449707,-0.039307,-51.595421,-121.007637,87.709923
1.175293,-0.338379,0.499756,-42.442749,-72.755722,11.770992
0.960449,-0.291260,0.445068,42.786259,-29.992367,-1.778626
0.944580,-0.151611,0.554687,74.603050,15.786260,36.610687
1.146484,0.118408,0.495850,66.946564,45.152672,48.022900
1.587646,0.570801,0.602783,22.603054,42.267174,21.885496
1.984314,0.696533,0.659180,-22.053434,221.137405,-153.267181
1.984314,0.842285,1.217285,-4.984733,172.152664,-86.625954
1.984314,1.235352,1.325439,3.137405,138.389313,-182.732819
1.984314,1.350830,0.909424,-9.282443,72.847328,-120.305344
1.921143,0.612793,-0.011963,-107.320610,14.396947,-28.725191
0.936523,0.459717,-0.475342,-38.809162,-16.763359,-22.969465
0.309570,1.112061,-0.627686,83.427483,20.824427,28.396946
0.832031,1.984314,-0.639160,65.076332,4.541985,45.847328
1.104004,1.167969,0.015381,27.160305,-19.839695,60.839695
1.479248,0.685303,0.370361,26.030535,-22.328245,81.748093
1.462891,0.553223,0.448242,12.488549,-64.992363,61.916031
1.564697,0.289795,0.511719,-4.709924,-82.908394,47.549618
1.598633,0.250244,0.477783,-21.480917,-91.709923,19.679390
1.526367,0.216309,0.442383,-37.702290,-103.396950,-19.229008
1.386963,0.087891,0.535645,-32.290077,-75.450378,-30.564886
1.292725,0.087891,0.515869,-9.198473,-15.030535,-20.122137
1.106934,0.284424,0.298828,18.045801,26.557251,-6.015267
0.963867,0.473389,0.150146,32.137405,41.343510,-0.839695
0.875488,0.566162,-0.045898,21.877863,33.916031,2.572519
0.893311,0.608398,-0.175049,12.488549,17.908398,5.076336
0.938721,0.547363,-0.207275,1.229008,7.801527,8.374045
0.920898,0.391113,-0.221191,-1.091603,6.809160,7.038168
0.866455,0.197021,-0.082275,1.473282,8.145039,4.900764
0.805176,0.143311,-0.048584,21.519083,10.618320,-4.320611
0.755615,0.122803,-0.093018,24.465649,10.687023,-11.526717
0.698486,0.192871,-0.099365,14.641221,17.099237,-12.557252
0.600586,0.277344,-0.102783,-0.664122,18.053434,-10.259542
0.510986,0.322754,-0.123047,-9.732824,11.061069,-8.664123
0.442139,0.274658,-0.118164,-9.236641,1.664122,-9.480916
0.433838,0.228516,-0.083496,2.343511,-8.480916,-9.076336
0.460449,0.168945,-0.093506,17.122137,-17.938931,-9.160305
0.493408,0.116699,-0.085449,29.091602,-19.541985,-7.969466
0.524902,0.125488,-0.065674,38.221375,-20.793894,-6.320611
0.550293,0.193848,-0.072998,33.366413,-18.969465,-1.099237
0.572510,0.276367,-0.086914,16.931297,-25.618320,0.870229
0.592529,0.301025,-0.063721,-0.419847,-35.083969,2.045802
0.621094,0.251953,0.027832,-10.083969,-39.053436,4.030534
0.626465,0.197266,0.168945,-5.854962,-34.351147,3.923664
0.571289,0.115723,0.322021,2.893130,-22.778625,1.984733
0.481934,0.089111,0.440918,6.839694,-15.267176,2.274809
0.419922,0.195557,0.444092,10.305344,-10.832061,4.000000
0.381592,0.252930,0.319824,4.641222,-9.908397,5.732824
0.358887,0.181396,0.263184,-8.549619,-14.725191,7.511450
0.399170,0.215088,0.263672,-8.358779,-12.801527,4.641222
0.432617,0.232422,0.277100,-1.458015,-11.664123,-3.778626
0.435303,0.216064,0.346191,5.755725,-7.816794,-7.519084
0.415771,0.250244,0.376953,14.809160,-1.236641,-4.877862
0.244141,0.358887,0.337891,-45.022900,2.503817,54.931297
0.554932,0.267822,0.178467,-7.809160,4.007634,41.717556
0.495605,0.424561,0.032471,-25.694656,-20.183207,-11.122137
0.417725,0.472412,-0.204346,-33.992367,-30.656488,6.000000
0.585937,0.382324,-0.267822,-49.862595,-26.183207,23.610687
0.683105,0.273682,-0.300293,-65.931297,-34.244274,22.458015
0.778320,0.050781,-0.253906,-42.954197,-28.404581,32.412212
1.111328,0.234131,-0.265869,-30.580153,-14.389313,31.458015
1.984314,1.123291,0.512207,-18.954199,154.450378,-111.725189
1.445313,0.359131,-0.222412,3.984733,95.938934,-99.633591
1.984314,1.093018,0.295410,-37.694656,168.778625,-128.274811
1.984314,1.087158,0.243896,-131.450378,124.015266,-36.916031
1.960449,0.292969,0.283447,-85.740456,49.099236,-58.328243
1.239502,0.337158,0.160400,1.763359,-0.450382,-54.656490
0.529297,0.950928,0.062256,29.236641,-11.175572,-37.938931
0.707764,1.291016,0.223145,4.770992,-5.389313,8.396947
1.106934,0.718750,0.365967,32.908398,-13.916031,34.267174
1.166504,0.733887,0.336914,44.106869,-46.671757,37.236641
1.393066,0.633057,0.330322,42.122139,-68.099236,44.396946
1.480469,0.652588,0.187744,31.038168,-84.198471,46.748093
1.500488,0.584229,0.129639,24.251909,-86.564888,37.267174
1.522949,0.670898,0.100586,-1.801527,-74.160309,24.603054
1.496338,0.563477,0.231445,-3.656489,-28.877863,2.175573
1.199951,0.325928,0.126465,3.160305,9.564885,7.412214
1.006836,0.298340,0.032959,17.893129,20.641222,12.580153
0.928711,0.349609,0.031494,18.633587,18.885496,2.900763
0.932861,0.373779,0.048828,21.908398,12.114504,-0.076336
1.041016,0.428223,0.104980,23.801527,12.229008,1.877863
1.187012,0.513916,0.008545,25.610687,9.778625,3.854962
1.291016,0.578369,0.128418,21.908398,17.541985,9.809160
1.236084,0.535156,0.159424,25.618320,25.687023,11.450381
1.111084,0.380859,0.122314,21.480917,28.244274,8.778625
0.999512,0.216797,0.121338,11.206107,25.083969,2.358779
0.902832,0.162842,0.097656,6.328244,24.213741,-7.198473
0.786133,0.167236,0.005127,6.916030,27.358778,-11.366412
0.691895,0.227783,0.009521,7.702290,36.488548,-9.732824
0.600098,0.315430,0.020752,11.793893,39.419846,-7.793893
0.507080,0.402588,-0.040039,18.656488,34.389313,-8.435115
0.472900,0.403809,-0.016357,15.725191,24.824427,-8.938931
0.457764,0.368408,0.065186,15.587787,17.633587,-8.076336
0.474609,0.389160,-0.024414,15.580153,13.580153,-6.290076
0.514648,0.379395,-0.068115,9.404580,9.145039,-6.442748
0.541992,0.292236,-0.029785,4.526718,4.473282,-6.038168
0.554199,0.239746,0.089844,7.618320,8.328244,-8.305344
0.512939,0.244873,0.143799,9.870229,11.816793,-8.305344
0.464111,0.229004,0.109619,3.030534,10.221375,-5.503817
0.434082,0.199951,0.074219,-9.022901,4.511450,-1.442748
0.427979,0.188965,0.023926,-16.435114,-1.809160,2.435115
0.463135,0.191650,-0.021973,-18.664122,-6.083970,5.053435
0.501953,0.187744,-0.096680,-15.335877,-9.236641,4.221374
0.490479,0.141846,-0.083252,-10.816793,-5.854962,0.435115
0.400635,0.051514,-0.021973,-4.847328,-4.580153,1.282443
0.345703,0.011475,0.010254,2.641221,-5.671756,9.396947
0.354248,0.097900,-0.008789,8.702291,-8.786260,12.343512
0.275146,0.105469,-0.145752,0.618321,-15.122137,14.931297
0.327148,0.266846,-0.193848,-9.137404,-18.763359,16.969465
0.397949,0.419678,-0.083252,-15.824428,-22.893129,8.725191
0.452881,0.389404,0.047852,-18.068703,-28.015266,1.488550
0.467285,0.190430,0.171875,-16.083969,-22.656488,0.244275
0.427002,0.051025,0.151123,-15.030535,-20.633587,10.236641
0.447510,0.093506,0.130615,-9.938931,-18.076336,9.152672
0.297119,0.512451,-0.197266,-110.282440,-20.969465,49.045803
0.669434,0.282715,0.205566,-7.450382,-16.610687,76.213737
0.828125,0.293213,0.081543,-36.961834,-36.816795,8.763359
0.677002,0.151855,0.182617,6.030534,-19.328245,-20.671755
0.695557,0.115967,0.448730,-17.938931,-0.038168,10.396947
0.865479,0.239502,0.447021,-25.442749,3.442748,32.335876
1.162598,0.527100,0.479248,-33.549618,3.435115,20.694656
1.612061,0.588135,0.610596,-34.564884,20.755726,51.519085
1.984314,0.973389,0.620605,-56.061069,236.396942,-101.282440
1.984314,0.841309,0.765381,-37.870228,145.343506,-24.244274
1.984314,1.033203,0.476562,-56.717556,133.496185,-76.603050
1.984314,0.540039,0.133301,-51.068703,41.282444,-44.595421
1.492676,0.260254,-0.456299,-25.709923,-2.396947,-27.366413
1.035156,0.651855,-0.651611,23.290077,-25.916031,-22.450382
0.976562,1.092041,-0.129395,38.343510,-9.152672,12.755725
1.005859,0.990479,0.138184,52.877861,-0.908397,52.664124
1.125000,0.784912,0.302246,39.114502,-31.564886,35.183205
1.343018,0.476318,0.522949,28.312977,-52.885498,34.816795
1.499268,0.384521,0.494873,21.534351,-61.595421,21.641222
1.529541,0.393555,0.438721,5.992366,-66.580154,-6.473282
1.443115,0.290039,0.407715,0.992366,-37.595421,-21.404581
1.236816,0.246094,0.357910,-1.068702,-17.488550,-22.977098
1.033936,0.274170,0.343750,6.877862,-3.641221,-22.572519
0.884521,0.312012,0.263184,14.488549,3.160305,-16.389313
0.835205,0.423584,0.182617,20.839695,9.793893,-10.977099
0.823486,0.498535,0.138672,20.740458,15.671756,-1.931298
0.851807,0.515137,0.073975,7.770992,12.786260,7.770992
0.874023,0.544189,0.046875,-1.366412,5.335878,14.190840
0.918945,0.533447,0.003418,-6.725191,-4.030534,13.786260
0.949463,0.437988,-0.017334,-9.190840,-9.625955,6.496183
0.922363,0.280029,0.033447,-9.076336,-6.557252,2.404580
0.865479,0.136475,0.038086,-6.671756,-4.473282,3.328244
0.818359,0.103027,0.111572,-2.000000,-0.595420,1.297710
0.782227,0.202393,0.124268,11.374045,2.083969,2.091603
0.802246,0.332764,0.094482,16.458015,5.244275,1.916031
0.784180,0.454834,0.032471,13.671756,8.946565,2.114504
0.725830,0.513184,0.028809,4.534351,5.305344,2.145038
0.649902,0.416748,0.074951,-7.488550,-5.175572,2.465649
0.609375,0.266357,0.184082,-10.801527,-14.328244,2.633588
0.622559,0.197266,0.240479,-0.916031,-20.366413,-0.045802
0.651611,0.211426,0.235107,14.427481,-20.961832,-4.854962
0.663574,0.272705,0.219727,22.473282,-13.770992,-4.465649
0.661621,0.405273,0.190430,21.709923,-8.030535,-1.083969
0.631104,0.454346,0.130371,9.748092,-10.328244,1.396947
0.590332,0.395752,0.145020,-6.503817,-14.610687,3.038168
0.555420,0.275391,0.196045,-15.931297,-19.137405,4.259542
0.530762,0.158203,0.198242,-18.251909,-21.656488,3.061069
0.501221,0.070557,0.166260,-12.748092,-20.053434,1.526718
0.464355,0.009277,0.127197,-2.641221,-16.725191,-0.007634
0.439453,0.011719,0.094727,7.656488,-12.152672,2.770992
0.425781,0.096191,0.052490,16.832062,-11.396947,3.580153
0.427002,0.197754,-0.005127,18.160305,-11.870229,4.847328
0.422363,0.241943,-0.067627,12.099236,-15.862596,8.480916
0.430664,0.242676,-0.088379,4.106870,-16.206106,10.694656
0.411621,0.190186,-0.096924,-0.549618,-18.648855,9.267176
0.395996,0.155029,-0.075684,2.244275,-22.519083,6.137404
0.381348,0.139893,-0.126465,8.984733,-26.152672,1.305344
0.349854,0.131592,-0.177246,8.770992,-26.854961,-0.473282
0.372070,0.184570,-0.200684,5.526718,-28.732824,1.770992
0.273438,0.331055,-0.268066,-68.931297,-37.442749,45.648853
0.708252,0.149170,-0.101318,-13.381680,-23.809160,71.312981
0.877930,0.337646,-0.184570,-32.671757,-50.229008,-5.053435
0.870605,0.282227,-0.053711,-19.152672,-55.618320,-12.511451
1.074707,0.235596,0.171875,-19.557251,-17.694656,20.442749
1.277344,0.437744,0.113037,-27.473282,12.236641,39.595421
1.984314,0.921387,0.485840,-43.160305,111.854965,-68.061066
1.452881,0.081543,0.361572,-31.694656,112.099236,-73.175575
1.984314,0.505859,0.461426,-30.648855,139.534348,-117.549622
1.984314,0.884521,0.562012,-76.106873,114.839691,-60.450382
1.984314,0.708984,0.447266,-96.946564,71.419846,-54.297710
1.458008,0.320068,0.132324,-46.763359,0.496183,-75.511452
0.649414,0.944824,-0.192871,4.557252,-15.725191,-66.885498
0.545898,1.245361,-0.037842,-5.557252,17.175573,-13.809160
0.832031,0.874512,0.130859,6.358778,10.068703,18.435114
1.128418,0.698975,0.281006,17.610687,-4.641222,25.832062
1.209473,0.596680,0.421387,37.213741,-28.580153,40.175571
1.259521,0.698242,0.372803,31.717558,-49.160305,46.786259
1.297119,0.552490,0.328857,36.106869,-72.549622,47.404579
1.299561,0.526855,0.300537,26.206106,-79.045799,42.389313
1.263672,0.533447,0.270264,7.954198,-75.870232,46.312977
1.302734,0.633057,0.218262,-4.763359,-61.916031,35.755726
1.249023,0.452393,0.181885,-3.854962,-24.748091,24.160305
1.108887,0.327148,0.141113,8.656488,-2.374046,24.351145
1.009033,0.313721,0.022949,16.442749,8.977099,18.832062
0.991211,0.286133,-0.065186,12.648855,8.045801,9.763359
1.012207,0.248047,-0.034668,8.572519,7.893130,-0.045802
1.084473,0.326660,0.062988,13.770992,10.908397,-6.793893
1.171143,0.501953,0.012207,17.519083,12.076336,-5.969466
1.247070,0.609863,-0.076172,14.702291,13.122137,-1.679389
1.265137,0.557129,0.012939,6.854962,10.778625,2.083969
1.213867,0.409424,0.144531,9.557252,10.167939,0.419847
1.122559,0.349121,0.184814,23.190840,8.083969,-3.435115
1.069336,0.352783,0.188232,39.320610,15.175572,-13.755725
0.984131,0.285889,0.116211,33.625954,18.343512,-24.152672
0.831055,0.128662,0.115479,12.511451,19.145039,-25.137405
0.713135,0.079590,0.170898,-0.847328,21.152672,-20.656488
0.666016,0.207275,0.170898,-2.946565,20.221375,-20.603054
0.626709,0.310059,0.092041,-7.351145,18.885496,-23.854961
0.539062,0.300537,-0.000488,-12.916031,16.503817,-24.725191
0.440430,0.169189,-0.002930,-11.862596,14.335877,-20.206106
0.358887,0.045898,-0.014648,0.343511,17.786259,-15.725191
0.310303,-0.010986,0.019531,16.473282,19.793894,-11.259542
0.316895,0.028320,0.005615,33.656490,15.129771,-6.717557
0.380127,0.077881,-0.072754,37.557251,10.175572,-3.770992
0.410156,0.066895,-0.093750,33.389313,12.748092,-0.419847
0.371582,0.023682,-0.107910,23.183207,16.290077,1.801527
0.267090,-0.013672,-0.136719,12.343512,18.969465,8.358779
0.208984,0.020996,-0.225586,7.221374,17.450382,17.465649
0.179932,0.072021,-0.233887,-7.122138,12.893129,21.297710
0.205078,0.156738,-0.210937,-11.435115,2.496183,14.053435
0.230225,0.188721,-0.071289,-9.251908,-11.351145,8.793893
0.279053,0.217773,-0.043457,-0.564885,-20.534351,10.297709
0.391846,0.304932,-0.004883,4.404580,-18.969465,15.832061
0.483887,0.316406,0.011719,14.580153,-15.687023,16.679390
0.518799,0.312500,0.058105,30.816793,-6.656488,17.183207
0.560303,0.402344,0.112305,45.610687,2.541985,15.908397
0.601074,0.558838,0.225098,56.549618,5.893130,7.274809
0.662109,0.732178,0.253174,63.809162,16.381680,0.061069
0.671387,0.905518,0.189453,52.244274,19.702290,-6.557252
0.629150,1.051758,0.119629,12.824428,19.091602,-4.885496
0.344482,0.725342,0.349609,-50.862595,30.625954,57.206108
0.587158,0.476807,0.217041,-51.641220,22.832062,63.022900
0.579102,0.108154,0.369873,-71.763359,1.206107,10.694656
0.633057,-0.103516,0.288574,-57.755726,-24.900763,-2.977099
1.113281,0.078369,0.535645,-48.053436,-33.755726,45.603054
1.984314,1.482910,1.772705,-56.694656,90.977097,-20.320610
1.984314,0.180664,0.596191,-33.541985,179.000000,-106.015266
1.984314,0.868896,0.674561,-51.534351,89.190842,-79.076332
1.984314,-0.352539,-0.418213,-102.648857,4.068702,-23.458015
1.224854,0.031006,-0.617187,-56.099236,-46.755726,-94.412216
0.566162,1.104248,-0.143311,43.641220,-65.633591,-113.305344
0.867187,1.752441,0.286133,50.198475,22.931297,42.290077
0.916260,1.315186,0.373779,44.854961,-3.900763,62.832062
1.142090,1.041504,0.398438,28.145039,-51.167938,56.190838
1.531738,0.779785,0.439941,1.221374,-84.793892,36.129772
1.747070,0.359131,0.510742,-13.267176,-90.374046,10.679389
1.608643,0.151367,0.463379,-12.595420,-61.076336,-0.251908
1.447266,0.172607,0.469727,7.946565,-24.770992,11.221375
1.300049,0.235107,0.365967,25.022902,3.351145,19.244274
1.118164,0.282227,0.251465,36.847328,16.122137,8.122137
0.967773,0.312256,0.134277,39.954197,20.137405,-0.931298
0.872559,0.388916,0.054932,36.473282,26.458015,-0.282443
0.822510,0.498291,0.000244,30.618320,30.442749,5.297710
0.826660,0.575195,-0.004639,21.610687,25.488550,5.419847
0.823730,0.553955,-0.067139,13.206107,11.679389,-0.076336
0.854980,0.433350,-0.029541,5.572519,0.091603,-3.045802
0.907959,0.305664,0.025146,10.335877,-5.290076,-6.961832
0.947510,0.230713,0.066895,18.824427,-1.717557,-13.496183
0.957520,0.208252,0.038330,22.595419,2.755725,-14.274809
0.916992,0.273926,0.019531,20.473282,10.862596,-12.786260
0.812012,0.286865,0.019531,18.015266,18.030535,-10.145039
0.702393,0.276367,0.068604,13.740458,15.648855,-7.748092
0.615723,0.257813,0.115723,14.000000,13.832061,-8.870229
0.544434,0.250488,0.115234,15.404580,13.961832,-11.541985
0.489014,0.273682,0.121338,14.679389,12.129771,-11.633588
0.473877,0.301025,0.079834,8.129771,5.099236,-8.320611
0.497803,0.366455,0.035645,-1.923664,-1.320611,-6.221374
0.509277,0.402100,0.005859,-10.274809,-4.206107,-5.473282
0.497314,0.368408,-0.056641,-17.022902,-8.076336,-4.862596
0.474365,0.286377,-0.043945,-21.145039,-10.206107,-3.603053
0.464844,0.233398,0.021729,-16.572519,-10.221375,-3.007634
0.445312,0.174561,0.048096,-9.732824,-7.717557,-4.389313
0.422119,0.164307,0.080811,1.083969,-6.106870,-3.671756
0.429687,0.222900,0.048096,10.244275,-7.145038,-3.343511
0.445312,0.273193,-0.027832,14.503817,-8.877863,-3.770992
0.453857,0.295166,-0.047119,10.877863,-10.152672,0.312977
0.455078,0.256348,-0.037354,7.618320,-14.122137,1.381679
0.463135,0.218262,-0.010986,7.633588,-16.381680,1.473282
0.465088,0.181396,0.003906,6.038168,-18.633587,0.198473
0.464600,0.204102,0.028076,6.198473,-19.267176,-1.748092
0.481934,0.259521,0.023193,3.030534,-18.839695,-1.015267
0.499512,0.237549,-0.018311,-4.572519,-21.877863,-1.427481
0.490967,0.196045,-0.059570,-11.755725,-24.404581,2.450382
0.528076,0.173096,-0.001709,-6.381680,-25.954199,1.633588
0.573486,0.110596,0.154053,15.312977,-26.198473,-5.740458
0.621094,0.168457,0.217773,37.366413,-18.679390,-10.587787
0.376709,0.213379,0.178467,-37.862595,-4.343512,43.809162
0.690430,0.225586,0.105469,10.870229,8.580153,63.534351
0.749756,0.418457,0.080811,-21.603054,-23.045801,-7.259542
0.692871,0.446289,-0.007568,-21.450382,-40.580154,-23.045801
0.818359,0.341064,0.162354,-36.297710,-17.427481,12.549619
0.999023,0.232666,0.271973,-43.740459,5.847328,40.068703
1.175537,0.411865,0.323730,-41.412212,19.328245,38.328243
1.984314,1.061523,0.675049,-42.122139,76.419846,-17.702290
1.984314,0.748779,0.490723,-62.709923,174.083969,-89.167938
1.984314,1.535400,0.664307,-70.832062,149.496185,-64.274811
1.984314,1.108154,0.415527,-91.396950,107.687019,-65.961830
1.872070,0.525635,-0.051514,-77.320610,57.114502,-44.412212
1.196777,0.252930,-0.417725,-34.190838,19.320610,-39.770992
1.026367,0.469482,-0.174561,-16.419847,17.366413,-30.366413
0.949463,0.758789,0.232178,5.832061,-5.526718,-14.114504
1.087646,0.718018,0.499512,37.763359,-4.832061,15.992367
1.080322,0.842285,0.581543,60.343510,-33.083969,28.236641
1.187012,0.829346,0.543457,57.374046,-57.526718,44.916031
1.291748,0.679932,0.434326,41.717556,-78.259544,45.297710
1.357178,0.526855,0.403320,33.709923,-83.603050,33.083969
1.345459,0.593750,0.361816,19.320610,-86.389313,7.290076
1.250732,0.487549,0.409180,12.122137,-54.816795,-3.061069
1.117676,0.382080,0.418701,16.541985,-28.511450,4.251908
0.992187,0.414551,0.349854,14.488549,-2.572519,23.213741
0.954590,0.379395,0.135254,12.488549,9.809160,25.122137
0.947266,0.342773,0.015137,11.648855,11.740458,10.618320
0.989258,0.390625,-0.078369,11.091603,15.564885,2.748092
1.048584,0.475342,-0.142090,10.152672,18.038168,2.167939
1.119629,0.545166,-0.121582,7.007634,16.740458,2.328244
1.147217,0.557617,-0.069092,3.671756,18.778625,5.198473
1.139160,0.572754,0.042969,4.068702,22.022902,9.251908
1.069336,0.529541,0.066650,-0.740458,21.503817,11.694656
0.965088,0.441650,0.149902,-2.587786,18.534351,10.145039
0.890137,0.300293,0.175049,-3.396947,13.503817,6.282443
0.841064,0.204590,0.218018,-2.496183,7.908397,0.603053
0.800781,0.207764,0.193359,4.992366,11.572519,-1.824427
0.770508,0.278320,0.118164,4.984733,19.458015,-0.206107
0.702637,0.328857,0.076416,2.862595,27.572519,-1.427481
0.615479,0.304932,0.025146,-1.755725,22.305344,-1.664122
0.576660,0.278809,0.079834,-5.030534,13.053435,-3.396947
0.572754,0.286865,0.198242,3.885496,8.190840,-4.396946
0.570801,0.300537,0.221191,8.839695,7.992366,-4.335878
0.525146,0.346191,0.126953,10.091603,9.030535,-3.389313
0.494385,0.352783,-0.041748,3.114504,1.770992,2.183206
0.523193,0.360596,-0.069824,-8.175572,-5.885496,4.465649
0.585693,0.363770,-0.020508,-13.167939,-9.167939,2.022901
0.631836,0.330566,0.000977,-11.213740,-12.206107,0.358779
0.675293,0.272217,0.139160,-3.450382,-9.290076,0.099237
0.686279,0.242920,0.193848,7.740458,-5.419847,0.229008
0.707031,0.326904,0.172363,15.534351,-5.633588,0.068702
0.725098,0.455566,0.095215,13.099236,-8.992367,-3.160305
0.689453,0.438477,0.053223,-4.274809,-13.854961,-2.480916
0.668213,0.354492,0.034668,-14.946565,-15.435115,8.320611
0.698975,0.296631,0.064941,-18.198473,-16.076336,8.763359
0.694336,0.234131,0.147949,-14.832061,-14.259542,1.587786
0.635742,0.194092,0.199707,-6.251908,-12.435115,-1.251908
0.584229,0.235107,0.140137,0.832061,-13.969465,3.091603
0.575195,0.305908,0.115967,0.877863,-14.183207,4.992366
0.537598,0.272705,0.111328,-2.519084,-14.778625,8.938931
0.481445,0.217529,0.091553,-6.824428,-13.427481,10.526717
0.423340,0.227051,0.084717,-5.587786,-12.954199,14.496183
0.390137,0.223145,0.017578,-4.221374,-21.076336,10.465649
0.371826,0.204102,-0.014648,-5.610687,-29.000000,7.015267
0.383789,0.221436,-0.030762,-5.763359,-31.931297,8.427481
0.406006,0.198486,-0.050781,-9.541985,-32.572517,10.671756
0.448242,0.181396,0.043213,-8.213740,-28.977098,11.519084
0.508545,0.184082,0.019043,-1.022901,-30.404581,8.618320
0.566162,0.162598,-0.040527,0.229008,-34.732826,7.473282
0.618164,0.172363,-0.052490,8.503817,-33.885498,3.625954
0.646240,0.209717,0.001953,20.015266,-28.305344,0.000000
0.621582,0.452881,-0.116943,15.694656,-24.106871,9.381680
0.475830,0.195068,0.342773,-32.717556,-25.015266,85.725189
0.914062,0.129883,-0.048340,18.709923,-32.099236,47.290077
0.871582,0.308594,0.262695,-8.122137,-38.725189,-16.916031
0.900635,0.354004,0.065186,7.908397,-45.274811,-2.267176
1.063721,0.407471,0.224609,-1.832061,-15.564885,21.091602
1.270508,0.501465,0.272705,-6.946565,0.748092,29.389313
1.984314,1.004639,0.663330,-22.717558,66.251907,-30.534351
1.742188,0.262451,0.300049,-22.091602,133.145035,-69.442749
1.831299,0.849365,0.540283,-32.061069,141.190842,-39.267174
1.984314,0.790527,0.347412,-62.000000,97.381676,-71.618324
1.970459,0.657227,0.394043,-60.824429,79.534348,-54.328243
1.716309,0.509521,0.050293,-48.167938,46.923664,-45.389313
1.351074,0.521484,-0.234375,-21.015266,13.206107,-38.458015
0.968506,0.615234,-0.126465,-0.900763,1.374046,-13.450381
0.894287,0.744629,0.153809,10.893129,-16.290077,0.946565
1.125244,0.705811,0.304199,40.946564,-19.312977,21.122137
1.154541,0.743408,0.383057,53.305344,-43.465649,32.526718
1.295898,0.601562,0.446289,56.961834,-59.419846,46.335876
1.329102,0.642578,0.317383,38.587788,-72.396950,54.595421
1.335693,0.508545,0.325684,16.946566,-74.435112,55.770992
1.344971,0.468018,0.258301,3.083969,-72.137405,43.045803
1.356201,0.509277,0.190918,-7.572519,-63.633587,14.129771
1.280518,0.388916,0.186035,-11.725191,-23.404581,-11.885496
1.107422,0.281006,0.124268,-7.603054,2.000000,-7.610687
0.980957,0.285400,0.143555,4.412214,18.137405,5.381680
0.945557,0.328125,0.106689,9.648855,19.282442,11.473283
0.972900,0.381104,0.134766,10.160305,18.030535,16.351145
1.022705,0.441162,0.115234,14.206107,15.610687,14.725191
1.096436,0.464844,0.035156,14.633588,9.809160,12.648855
1.162109,0.491699,0.002930,5.053435,14.526717,8.045801
1.142578,0.485107,0.020508,-1.236641,17.992367,6.946565
1.115723,0.485352,0.029297,-7.396946,17.938931,9.213740
1.064941,0.461914,-0.032715,-20.068703,14.160305,8.183207
0.999268,0.368652,0.009521,-32.091602,10.213740,6.251908
0.932373,0.258057,0.103271,-32.763359,6.290076,4.190840
0.875000,0.156006,0.159424,-22.519083,4.549618,0.381679
0.818359,0.132080,0.186523,-11.824428,7.175572,0.137405
0.779785,0.309570,0.240967,20.213741,24.625954,-3.366412
0.730957,0.445801,0.040039,28.770992,22.328245,-6.938931
0.691406,0.513428,-0.055664,14.816793,15.496183,-9.412213
0.628174,0.475342,0.017578,-3.877863,14.732824,-6.221374
0.598877,0.397461,-0.005371,-17.923664,1.030534,-1.251908
0.642090,0.267334,0.074463,-30.557251,-7.770992,-1.755725
0.713867,0.171631,0.202637,-24.931297,-7.885496,-6.297710
0.756836,0.146484,0.260254,-8.625955,-0.610687,-11.954199
0.743408,0.160156,0.280273,5.755725,11.816793,-13.442748
0.681152,0.182617,0.223633,9.106871,19.595419,-9.877863
0.628662,0.263916,0.179443,6.511450,20.900763,-6.404580
0.602295,0.311035,0.112061,-0.152672,14.824428,-5.633588
0.581055,0.258057,0.079834,-10.862596,9.977099,-2.664122
0.572754,0.198975,0.107910,-10.290076,7.854962,1.160305
0.594482,0.122314,0.162842,-3.022901,7.656488,2.572519
0.618408,0.103760,0.224121,9.526717,12.045801,0.931298
0.619141,0.149658,0.215576,22.236641,15.137404,-2.229008
0.591064,0.205566,0.142090,25.190840,14.541985,-4.244275
0.551025,0.238281,0.060547,16.916031,12.687023,-1.946565
0.520020,0.269043,-0.011230,5.603054,9.152672,2.297710
0.494385,0.271240,-0.062500,-3.610687,5.816794,3.687023
0.473389,0.241699,-0.069092,-7.977099,2.427481,2.870229
0.449951,0.211426,-0.052734,-7.778626,-0.106870,2.465649
0.420410,0.162598,-0.024902,-5.648855,-2.152672,3.412214
0.385010,0.097412,-0.055908,-2.595420,-8.519084,5.809160
0.373047,0.038330,-0.050537,0.473282,-13.885496,9.984733
0.351807,0.011230,-0.097168,5.587786,-17.152672,8.763359
0.329346,0.078369,-0.143555,5.740458,-19.625954,16.000000
0.335205,0.112305,-0.262451,3.656489,-29.816793,18.687023
0.346680,0.092529,-0.303223,1.610687,-38.160305,17.931297
0.292725,0.111816,-0.583984,-5.496183,-43.931297,14.770992
0.390869,0.421143,-0.344727,-13.885496,-32.511452,17.641222
0.546631,0.517090,-0.260986,-15.770992,-50.992367,7.175572
0.688477,0.232666,0.079590,-22.427481,-57.519085,0.572519
0.736572,-0.045410,0.203125,-4.465649,-43.793892,-1.839695
0.817871,-0.071777,0.299805,13.862596,-29.793894,-1.832061
0.788086,0.432617,0.041260,-49.251907,-16.793894,30.564886
1.115234,0.240479,0.704590,26.977098,20.496183,82.328247
1.353760,0.478516,0.404297,19.770992,-2.549618,-15.435115
1.055420,0.413086,0.680908,23.679390,5.748092,-51.412212
1.166748,0.549072,0.725586,6.320611,27.473282,2.946565
1.953369,1.028076,0.641846,-32.641220,57.206108,23.587786
1.984314,0.708008,0.648193,-53.916031,193.396942,-109.893127
1.984314,0.960449,0.897217,-21.832062,154.770996,-56.503819
1.984314,0.851074,0.531738,-43.854961,100.198471,-88.488548
1.984314,0.487793,-0.085449,-41.740459,9.763359,-63.648853
1.257324,0.623291,-0.762939,-31.450382,-56.679390,-91.106873
1.206055,1.246582,-0.693359,12.938931,6.236641,8.900764
0.827637,1.204346,-0.227783,29.496183,-33.381680,13.290076
1.229248,0.950439,0.149658,47.961834,-33.541985,39.969467
1.353027,0.843018,0.402832,34.908398,-42.671757,63.328243
1.417480,0.684326,0.520508,25.061069,-52.274811,78.992363
1.565918,0.601318,0.430176,-2.770992,-70.496185,50.587788
1.552002,0.367432,0.512451,-13.687023,-64.633591,11.450381
1.422119,0.109863,0.398926,-7.641222,-37.282444,-5.167939
1.227051,0.087158,0.394287,0.160305,-13.725191,-6.816794
1.069580,0.150635,0.392090,15.702291,3.442748,-4.664122
0.964600,0.330566,0.317139,37.908398,13.977099,-5.374046
0.898193,0.484131,0.213867,45.786259,23.442749,-0.587786
0.859375,0.538574,0.089600,37.725189,24.770992,10.557252
0.857178,0.539307,0.012939,20.862595,18.900763,12.541985
0.864990,0.475830,0.003662,9.122137,7.068702,6.519084
0.894287,0.397461,-0.053223,1.549618,-2.557252,1.129771
0.908447,0.338623,-0.056641,-0.885496,-2.404580,-4.709924
0.855469,0.222900,-0.079346,-1.587786,-3.229008,-7.732824
0.792725,0.088867,-0.061768,-3.366412,-2.259542,-6.381680
0.747559,0.036621,-0.006836,-0.045802,1.740458,-3.862595
0.747314,0.149414,0.047363,8.709924,3.572519,-4.633588
0.748291,0.291260,0.029785,15.961832,5.969466,-7.145038
0.705322,0.334961,-0.017090,15.900764,4.564886,-4.610687
0.650879,0.350830,-0.016113,14.847328,3.755725,-1.717557
0.610596,0.312256,0.019043,14.938931,-3.854962,-1.755725
0.597168,0.221924,0.046143,13.290076,-12.038168,-2.458015
0.573730,0.142090,0.038574,6.381680,-13.671756,-2.656489
0.564941,0.151367,0.052246,5.748092,-13.679389,-2.717557
0.582764,0.173096,0.066162,0.916031,-17.839695,-2.687023
0.591797,0.188477,0.054687,-2.160305,-21.572519,-4.832061
0.594727,0.215332,0.043945,-2.122137,-18.587786,-4.564886
0.596436,0.241699,0.062988,2.916031,-15.725191,-5.122138
0.593994,0.251709,0.079102,10.366412,-15.083969,-6.396946
0.594238,0.256104,0.090332,16.290077,-14.908397,-8.290076
0.603516,0.266846,0.144775,18.183207,-13.702291,-7.786260
0.611572,0.278320,0.168945,17.488550,-13.450381,-3.534351
0.599121,0.263672,0.158936,11.488549,-12.801527,-0.053435
0.572510,0.277344,0.164795,7.435114,-13.656488,2.404580
0.560791,0.310547,0.116699,6.061069,-15.351145,3.992366
0.562744,0.319580,0.071533,4.076336,-14.832061,3.412214
0.566162,0.253662,0.018555,0.923664,-16.458015,3.328244
0.583740,0.204102,-0.046631,-0.656489,-17.496183,4.870229
0.620117,0.176270,-0.043945,-1.664122,-16.717558,4.129771
0.632812,0.189209,-0.014648,3.580153,-13.923664,1.473282
0.605713,0.208252,-0.074951,6.793893,-10.824428,0.137405
0.583740,0.231445,-0.114990,5.419847,-13.519084,2.671756
0.578125,0.197998,-0.142334,3.938931,-18.923664,3.045802
0.585937,0.135498,-0.221924,2.015267,-24.778625,1.404580
0.625977,0.096680,-0.169189,4.030534,-25.328245,-0.870229
0.669678,0.329590,-0.295410,0.465649,-22.450382,6.404580
0.667969,0.165283,0.096191,-6.137404,-12.740458,71.992363
1.068848,0.196045,-0.137695,37.893131,-12.282443,23.000000
1.031006,0.453613,0.092529,35.297710,-17.442749,-33.885498
1.075439,0.553223,0.072998,43.832062,-5.702290,-11.656488
1.197021,0.655273,0.075684,16.282442,23.778625,14.206107
1.133057,0.543701,0.118652,-29.351145,22.908398,17.786259
1.057129,0.224854,0.208740,-47.893131,14.106871,17.740458
1.984314,0.486816,0.527588,-38.320610,90.854965,-20.763359
1.084717,0.300781,0.274170,-18.938931,123.068703,-43.312977
1.194824,0.812744,0.185059,-27.328245,120.412216,-35.129772
1.593262,0.582031,0.260254,-66.931297,120.374046,-59.709923
1.805908,0.484375,0.481934,-80.801529,111.564888,-59.564884
1.945068,0.569092,0.320801,-66.351143,82.351143,-98.610687
1.673828,0.589844,0.026367,-40.282444,45.488548,-82.740456
1.101318,0.705811,-0.169189,-37.954197,26.221375,-40.877861
0.783447,0.766113,0.201904,-7.091603,7.312977,-19.671755
0.733887,0.942139,0.445068,27.717558,-10.732824,6.190840
0.952393,0.874268,0.536621,64.328247,-14.213740,34.931297
1.045410,0.808350,0.465088,62.190838,-40.022900,48.076336
1.177734,0.543457,0.363525,47.068703,-54.458015,57.572517
1.234375,0.422852,0.247070,26.526718,-69.358780,50.984734
1.258545,0.347168,0.261230,26.847328,-77.465652,38.129772
1.271484,0.445312,0.206787,26.251909,-77.053436,28.198473
1.366455,0.592041,0.186523,22.885496,-69.717560,18.992367
1.363525,0.579102,0.261475,18.595419,-34.343510,12.442748
1.260742,0.566162,0.220459,25.129770,-20.541985,18.816793
1.200684,0.604492,0.151367,19.595419,-8.679389,24.091602
1.177246,0.579346,0.007324,5.641222,-6.809160,23.236641
1.193848,0.532227,-0.032227,-10.007633,-1.648855,18.343512
1.168213,0.425781,-0.033447,-14.450381,2.885496,12.167939
1.170410,0.327393,0.036133,-6.015267,8.778625,5.488550
1.127930,0.223389,0.014404,-1.137405,17.687023,1.083969
1.042480,0.199219,0.055176,5.839694,25.740458,0.465649
0.939941,0.187256,0.104736,8.702291,30.541985,2.015267
0.822754,0.245850,0.087646,17.175573,33.702290,0.000000
0.731934,0.273926,-0.009521,16.641222,30.572519,-2.961832
0.673828,0.266113,-0.115234,1.816794,24.282442,-3.664122
0.675293,0.323242,-0.110840,-15.160305,19.450382,-1.435115
0.691650,0.410400,-0.090576,-22.717558,16.122137,-1.526718
0.687012,0.431885,-0.072510,-29.305344,16.648855,-2.671756
0.603760,0.349854,-0.059814,-31.381680,16.541985,-2.587786
0.527344,0.218018,-0.035156,-31.076336,14.458015,-3.320611
0.471191,0.112061,0.014404,-26.259542,10.931297,-4.503817
0.464844,0.108887,0.030762,-16.885496,6.732824,-4.572519
0.478516,0.144531,-0.045654,-12.061069,3.541985,-3.839695
0.496826,0.167480,-0.076904,-13.038168,4.335878,-2.396947
0.508789,0.206299,-0.074219,-9.717557,5.770992,-0.717557
0.502441,0.217529,-0.041260,-6.061069,5.587786,-1.961832
0.472168,0.207031,-0.006836,-0.862595,3.625954,-3.908397
0.424805,0.193604,0.007813,6.748092,1.473282,-2.625954
0.394531,0.189453,-0.011475,11.083969,-1.511450,-0.229008
0.388672,0.193115,0.021729,10.992367,-4.022901,1.374046
0.422852,0.221191,0.035645,6.442748,-8.870229,2.328244
0.474121,0.227539,0.040771,0.229008,-14.580153,0.129771
0.512939,0.235596,0.118164,-8.664123,-14.793893,5.297710
0.549561,0.187012,0.171143,-10.274809,-15.045801,6.404580
0.554199,0.102051,0.250977,-7.854962,-13.396947,3.412214
0.545898,0.060059,0.233887,-0.305344,-13.687023,4.381680
0.566162,0.087158,0.154541,5.664122,-13.129771,6.824428
0.607666,0.148193,0.127197,6.862596,-12.129771,7.030534
0.653564,0.217041,0.119629,8.824428,-8.442748,4.755725
0.698730,0.310059,0.163086,7.832061,-4.099236,6.343512
0.550049,0.570801,-0.204590,-64.106873,-1.725191,34.702290
0.687500,0.050293,0.286865,-27.320610,11.961832,76.984734
0.691895,-0.023193,-0.018066,-40.000000,-13.496183,14.412213
0.553955,0.013672,0.167236,2.854962,-10.763359,-10.022901
0.627686,0.201660,0.120117,-14.122137,-16.488550,13.312977
0.796143,0.383301,0.137695,-6.068702,-3.488550,26.832062
0.916260,0.485107,0.209961,-23.580153,2.290076,18.114504
1.104004,0.506592,0.326416,-36.801525,2.908397,25.732824
1.984314,1.059326,0.747803,-48.793892,165.488556,-84.389313
1.881592,0.730957,0.787842,-19.931297,134.893127,-36.580154
1.984314,0.962158,0.716553,-38.435116,145.732819,-65.938934
1.984314,0.504639,0.384521,-49.129772,69.358780,-48.763359
1.684082,0.302734,-0.257568,-41.068703,9.106871,-40.870228
1.115723,0.493164,-0.357666,-4.938931,-21.320610,-44.801525
0.902588,0.920410,-0.159912,21.473282,-16.122137,-11.702291
0.960449,1.000244,0.203125,38.832062,-27.381680,8.938931
1.210938,1.025879,0.319824,51.236641,-38.786259,34.114502
1.324707,0.845703,0.358398,57.045803,-56.007633,56.755726
1.425293,0.763428,0.357666,31.290077,-70.450378,70.671753
1.574463,0.570068,0.353271,17.038168,-76.419846,62.687023
1.656006,0.532227,0.298584,0.412214,-78.442749,17.190840
1.509766,0.239746,0.329590,-10.160305,-54.061069,-19.778625
1.293945,0.030273,0.328857,-3.274809,-30.832062,-17.274809
1.172607,0.137939,0.352783,11.885496,-9.366412,-6.259542
1.090088,0.340332,0.342773,32.328243,8.282443,-2.877863
1.000000,0.481201,0.264648,37.259541,10.053435,1.442748
0.950439,0.555908,0.197266,30.900763,9.389313,9.587787
0.921387,0.565674,0.120850,17.396946,3.946565,13.564885
0.902588,0.489746,0.093750,6.068702,-6.465649,10.480916
0.875732,0.334961,0.086182,-1.656489,-12.656488,5.274809
0.864014,0.167480,0.128174,-4.038168,-13.549619,0.229008
0.852783,0.082031,0.160400,-3.412214,-9.946565,-2.709924
0.839355,0.116943,0.133545,-3.366412,-3.496183,-1.587786
0.831543,0.214844,0.086426,-4.656488,1.877863,-0.946565
0.782471,0.239014,-0.040527,-11.931297,-0.236641,0.129771
0.736084,0.224609,-0.015625,-14.106871,0.198473,0.458015
0.690918,0.153809,-0.010986,-6.473282,-3.053435,-1.198473
0.677979,0.124512,0.046875,6.312977,-1.916031,-3.969466
0.663086,0.180908,0.028564,21.618320,0.358779,-7.503817
0.635498,0.227783,-0.027344,25.198473,0.106870,-8.580153
0.615479,0.237061,-0.012939,17.610687,-2.274809,-5.099236
0.622070,0.298096,0.024658,9.870229,-4.709924,-1.877863
0.628906,0.364014,-0.028809,2.305344,-7.931298,-2.137405
0.604492,0.324951,-0.025879,-10.854961,-12.099236,-1.748092
0.561768,0.209717,0.059570,-16.854961,-13.900764,0.992366
0.519287,0.105713,0.111084,-14.465649,-14.267176,2.809160
0.477295,0.054932,0.105713,-7.679389,-14.419847,1.374046
0.427490,0.064209,0.049072,-0.709924,-14.916031,0.641221
0.389648,0.090820,-0.006348,0.664122,-15.900764,2.076336
0.371338,0.104248,-0.054687,-0.099237,-18.656488,3.442748
0.364014,0.113281,-0.099365,-1.396947,-20.832062,4.534351
0.361572,0.128174,-0.099854,0.954198,-22.938931,4.435114
0.354736,0.137939,-0.072266,7.923664,-23.236641,2.816794
0.334473,0.151611,-0.057373,16.687023,-23.412214,2.030534
0.299316,0.150146,-0.092773,20.061069,-24.969465,4.221374
0.272705,0.132812,-0.107178,17.519083,-27.251909,0.580153
0.283691,0.224609,-0.183838,11.114504,-28.923664,2.641221
0.311035,0.380615,-0.270752,-9.290076,-34.679390,8.007633
0.438232,0.366455,-0.208008,-22.213741,-52.137405,6.038168
0.588135,0.149902,0.064209,-23.580153,-54.511452,-4.381680
0.666504,0.060547,0.131348,1.778626,-48.129772,-4.320611
0.750000,0.060547,0.043457,14.030535,-42.625954,-2.793893
0.751465,0.146240,-0.075684,16.099237,-28.801527,-6.664122
0.718262,0.264160,-0.131348,17.297710,-23.564886,-6.641222
0.539307,0.455322,-0.320313,-73.763359,-29.625954,54.183205
1.078857,0.101074,0.038330,17.251909,-16.396946,71.977097
1.273926,0.303223,-0.024902,-2.709924,-42.526718,-30.496183
1.217773,0.351074,0.081787,35.190838,-33.877861,-37.175571
1.984314,0.976074,0.258301,-0.549618,110.190842,-80.648857
1.253662,0.281738,0.271729,-16.244274,129.419846,-30.801527
1.775879,0.625488,0.089600,-41.877861,155.511444,-38.893131
1.984314,0.538574,0.244141,-49.022900,112.312981,-109.709923
1.984314,0.802002,0.231201,-26.206106,90.152672,-121.908394
1.984314,0.890381,0.296143,-31.267176,42.312977,-96.175575
1.266357,0.948242,0.353516,-24.839695,14.435115,-56.183205
0.630371,0.809814,0.096436,-11.786260,16.541985,-18.526718
0.546387,0.871094,-0.076172,-4.580153,21.488550,-1.274809
1.089355,0.690430,0.218018,21.335878,3.809160,16.007633
1.134033,0.715332,0.346436,39.541985,-20.587786,30.015266
1.189453,0.669434,0.395508,47.717556,-46.022900,45.648853
1.252197,0.587402,0.352783,47.938931,-62.961834,56.267174
1.259766,0.592041,0.270508,31.587786,-76.648857,57.877861
1.278809,0.511475,0.242920,19.404581,-80.458015,57.801525
1.211182,0.443848,0.128174,7.625954,-72.053436,48.938931
1.164551,0.438965,0.104004,1.053435,-60.923664,40.450382
1.195801,0.578857,0.014893,-0.664122,-54.778625,16.045801
1.170410,0.509766,-0.034180,-0.778626,-19.694656,-2.190840
1.037354,0.338379,-0.124268,-2.335878,4.954198,10.450381
0.984375,0.302979,-0.134521,0.816794,14.770992,21.061069
1.017822,0.332275,-0.094238,6.374046,7.709924,15.290076
1.096191,0.399414,-0.076660,12.977099,2.183206,5.435114
1.155518,0.463623,-0.101074,16.106871,0.099237,2.022901
1.179199,0.460449,-0.140869,13.404580,4.824428,2.351145
1.144531,0.410400,-0.117920,8.381680,9.938931,3.236641
1.089111,0.336914,-0.082031,3.160305,7.877862,2.450382
1.019287,0.281006,-0.039063,1.114504,7.564886,-0.885496
0.939453,0.230713,0.023926,3.061069,8.725191,-4.496183
0.843506,0.189209,0.039063,6.526718,9.396947,-5.748092
0.764893,0.205322,0.051514,7.503817,12.778625,-5.740458
0.714355,0.274414,0.020020,8.038168,11.679389,-6.099236
0.690186,0.338867,-0.041504,0.251908,7.595420,-6.908397
0.681885,0.364990,-0.073486,-8.358779,1.595420,-6.267176
0.680908,0.364746,-0.080566,-12.572519,-1.076336,-6.007634
0.666992,0.310059,-0.075684,-13.862596,-4.709924,-5.900764
0.649414,0.231689,-0.042480,-9.900764,-5.328244,-6.473282
0.624512,0.164795,-0.020508,-1.374046,-5.328244,-7.351145
0.608154,0.150146,0.014648,5.977099,-1.618321,-8.358779
0.582520,0.189453,-0.009766,6.854962,-2.083969,-6.511450
0.592529,0.279297,-0.012939,3.213740,-4.198473,-3.297710
0.597168,0.309814,-0.039063,-3.198473,-6.152672,-1.664122
0.593262,0.263428,-0.054932,-8.641221,-5.335878,0.099237
0.576660,0.218018,-0.016846,-8.625955,-4.374046,-3.717557
0.516357,0.147217,0.023193,-10.160305,-5.129771,-8.076336
0.480225,0.085205,0.046143,-5.793893,-6.007634,-4.183206
0.493896,0.083496,0.038330,-2.580153,-4.297710,-1.366412
0.499512,0.071777,0.024170,0.755725,-4.198473,-2.366412
0.490479,0.098633,0.024170,5.221374,-3.656489,-4.839694
0.452148,0.163818,-0.025635,5.603054,-1.404580,0.816794
0.440186,0.216797,-0.080566,1.625954,-1.633588,2.000000
0.410645,0.179932,-0.075439,-4.381680,-4.473282,1.969466
0.378906,0.120605,-0.100342,-6.496183,-6.992366,4.106870
0.403809,0.121826,-0.010498,-6.099236,-8.335877,5.305344
0.436768,0.123779,0.068604,4.152672,-9.076336,2.389313
0.447266,0.113770,-0.013184,8.244275,-7.809160,2.259542
0.439209,0.163818,-0.084961,9.122137,-6.687023,2.167939
0.447021,0.230713,-0.141602,10.419847,-8.519084,-0.450382
0.490479,0.318848,-0.192383,8.145039,-11.587787,-4.885496
0.572510,0.453125,-0.223389,-3.015267,-17.167938,-2.557252
0.473633,0.308105,-0.025391,-69.633591,-21.427481,65.099236
0.971436,0.252686,-0.328369,-21.549618,-11.152672,51.137405
1.074707,0.387695,-0.080322,-35.381680,-29.312977,-14.366412
1.183594,0.343018,-0.141113,-9.145039,-30.511450,-10.435115
1.984314,0.894287,0.382324,-3.824427,83.725189,-34.473282
1.550781,0.299561,0.171631,-18.022902,142.587784,-61.557251
1.698730,0.858398,0.007813,-28.679390,150.770996,-38.900764
1.984314,0.872314,0.062012,-52.282444,114.251907,-86.748093
1.984314,0.821045,0.244141,-61.152672,101.236641,-72.992363
1.853271,0.694580,0.225098,-64.297707,78.511452,-46.503819
1.345459,0.616455,0.389893,-34.312977,43.625954,-39.511452
0.934326,0.708496,0.344971,-10.793893,25.908398,-30.694656
0.831787,0.711426,0.249512,-14.480916,14.694656,-4.244275
0.991699,0.501465,0.274658,12.045801,-5.916030,7.702290
1.080811,0.676758,0.367188,33.931297,-25.625954,12.335877
1.206055,0.749512,0.347900,36.694656,-37.396946,30.419847
1.284912,0.664062,0.281738,37.297710,-53.190838,40.061069
1.272949,0.587402,0.282471,29.885496,-59.519085,47.007633
1.272705,0.510254,0.279297,17.625954,-61.083969,46.488548
1.293457,0.477295,0.230225,11.061069,-56.007633,38.755726
1.310303,0.556641,0.193115,11.862596,-48.610687,19.923664
1.272217,0.573730,0.102539,6.625954,-25.129770,-2.183206
1.141602,0.474854,-0.002197,1.427481,-6.190840,4.839694
1.078125,0.416748,0.001953,2.320611,4.206107,15.061069
1.090576,0.415771,0.064453,4.748092,10.732824,15.022901
1.113525,0.433105,0.061768,12.274809,14.572519,9.183207
1.109863,0.411133,0.021240,13.190840,17.480917,5.541985
1.088623,0.353271,0.012695,10.251908,16.984734,5.167939
1.071777,0.331299,-0.048340,3.839695,20.801527,6.908397
1.100586,0.413330,-0.021484,-0.374046,20.816793,6.900764
1.112793,0.486328,0.011230,-4.465649,26.068703,4.282443
1.029297,0.432129,-0.035400,-11.877863,26.282442,2.839695
0.920898,0.321533,0.005859,-18.923664,24.816793,3.633588
0.830322,0.265869,0.066162,-10.389313,25.106871,-1.183206
0.776855,0.212646,0.057373,-6.129771,21.274809,-4.198473
0.759521,0.266602,0.033203,-4.702290,18.748091,-3.709924
0.756104,0.351807,-0.019287,-3.687023,17.862595,-3.099237
0.739258,0.343750,-0.054932,-7.984733,14.274809,-1.374046
0.693604,0.283447,-0.036621,-11.832061,10.694656,-0.366412
0.646240,0.229492,0.006836,-8.740458,7.709924,-1.122137
0.618408,0.184326,-0.014893,-3.114504,-0.297710,-2.473282
0.626953,0.145996,0.015381,1.404580,-1.549618,-4.801527
0.643311,0.208496,0.030518,7.824428,-0.259542,-5.618320
0.671143,0.321777,-0.001465,11.488549,2.068702,-5.549618
0.702148,0.365723,0.043945,7.954198,3.534351,-3.870229
0.676025,0.358154,0.126221,7.572519,9.625955,-2.778626
0.617432,0.319336,0.169189,8.511451,11.129771,-3.351145
0.555664,0.260010,0.211182,7.977099,11.450381,-6.305344
0.500000,0.209473,0.199951,6.938931,8.816793,-8.870229
0.449463,0.176514,0.144775,4.381680,4.702290,-9.068703
0.431396,0.146240,0.086182,1.618321,2.007634,-7.091603
0.438721,0.131104,0.049805,3.610687,-0.908397,-4.251908
0.461426,0.130859,0.083252,11.022901,2.091603,-3.190840
0.452148,0.135742,0.118164,19.740458,6.091603,-2.305344
0.417480,0.212402,0.104980,28.992367,8.183207,-0.419847
0.382080,0.298584,0.044922,30.809160,7.000000,1.419847
0.362061,0.326660,-0.003906,24.274809,5.236641,0.335878
0.266602,0.284424,-0.019287,6.366412,1.129771,8.007633
0.266846,0.238037,-0.052246,-1.328244,-5.793893,6.793893
0.267578,0.195312,-0.032471,-8.725191,-10.610687,12.992367
0.277832,0.108398,-0.099854,-11.305344,-18.908398,10.099236
0.266846,0.101563,-0.261963,-13.580153,-23.221375,7.274809
0.328613,0.197021,-0.292725,-17.870230,-28.526718,8.541985
0.508057,0.291504,-0.115967,-18.732824,-34.213741,5.854962
0.639648,0.262207,-0.052979,-12.534351,-29.801527,-0.198473
0.713379,0.093018,-0.049316,-14.152672,-32.992367,3.099237
0.737793,0.128418,-0.031250,-7.885496,-22.748091,5.297710
0.463867,0.123047,0.086426,-101.778625,-30.083969,80.664124
0.990479,0.043457,0.055908,25.229008,-18.679390,62.854961
1.077881,0.247070,0.219238,-11.267176,-27.648855,-24.152672
0.993164,0.390137,0.075928,24.015266,-19.297710,-27.442749
1.183350,0.509033,0.452393,2.053435,17.595419,20.221375
1.497314,0.789551,0.337646,-37.129772,19.557251,36.656490
1.984314,1.292969,0.713867,-60.137405,87.114502,-26.954199
1.984314,0.393066,0.332520,-62.175571,156.816788,-71.145035
1.984314,0.820801,0.584229,-32.427483,142.946564,-41.274811
1.984314,0.696289,0.410400,-34.770992,86.167938,-76.610687
1.620361,0.500000,0.311768,-37.381680,40.183205,-50.633587
1.125244,0.556152,-0.010010,-25.740458,16.595419,-39.709923
1.029053,0.771240,-0.148437,-8.435115,3.358779,-17.916031
1.183350,0.786865,-0.106689,8.274809,-8.595420,6.977099
1.242432,0.792969,0.156250,32.190838,-19.709923,17.931297
1.260498,0.732666,0.301758,47.206108,-35.587788,35.007633
1.333252,0.721924,0.427002,36.030533,-48.381680,48.381680
1.425049,0.586182,0.485596,24.015266,-60.167938,49.893131
1.518066,0.552002,0.454834,10.091603,-72.931297,26.908398
1.448242,0.438477,0.508789,0.282443,-60.076336,-2.847328
1.292725,0.301025,0.439453,4.129771,-29.770992,-1.938931
1.168945,0.356445,0.390381,15.786260,-7.847328,7.374046
1.082764,0.480469,0.258301,26.679390,9.190840,6.679389
1.001465,0.545410,0.160156,22.870230,17.374046,5.572519
0.937012,0.519775,0.097656,15.656488,13.343512,9.984733
0.948486,0.444824,0.095215,6.687023,9.603053,12.816793
1.012451,0.380127,0.157959,2.732824,6.290076,11.152672
1.036133,0.314209,0.079834,1.564885,1.786260,6.381680
1.088867,0.329102,0.123047,9.877863,9.122137,0.587786
1.116943,0.396484,0.043213,16.534351,13.000000,-3.977099
1.096436,0.403809,-0.074463,6.984733,13.076336,-3.290076
1.057861,0.357422,-0.082031,-10.572519,9.923664,0.442748
0.987061,0.294189,0.002197,-17.404581,11.351145,0.801527
0.872559,0.158936,0.051025,-13.656488,11.938931,-1.770992
0.754883,0.054199,0.135986,-3.816794,16.580153,-6.320611
0.640381,0.006836,0.176270,14.122137,18.213741,-9.229008
0.568115,0.057373,0.145264,28.671755,20.396946,-8.946565
0.530518,0.207275,0.072266,34.625954,22.816793,-8.435115
0.513672,0.364746,-0.071777,29.679390,14.053435,-7.106870
0.533447,0.500488,-0.090820,16.625954,8.328244,-4.603054
0.547363,0.537354,-0.082275,2.305344,1.450382,-1.343511
0.545654,0.448975,0.024170,-10.931297,-1.786260,1.473282
0.512207,0.297852,0.106934,-17.267176,-5.961832,2.351145
0.498779,0.201904,0.197754,-16.305344,-7.328244,0.229008
0.492187,0.160156,0.217041,-13.328244,-8.305344,-2.961832
0.489258,0.162842,0.218506,-11.809160,-7.832061,-4.435114
0.481934,0.194336,0.115479,-15.061069,-9.679389,-3.358779
0.487061,0.208008,0.073975,-22.862595,-12.496183,-0.229008
0.499756,0.200195,0.087646,-24.885496,-13.809160,1.916031
0.503174,0.174072,0.118896,-20.099237,-13.526717,1.893130
0.482178,0.149658,0.116943,-11.458015,-11.213740,1.145038
0.443359,0.140381,0.100342,-3.099237,-10.244275,0.694656
0.396484,0.141113,0.109863,0.809160,-8.923664,0.847328
0.346191,0.145752,0.107666,3.473282,-9.687023,2.732824
0.323730,0.159424,0.042236,2.282443,-15.305344,5.343512
0.330078,0.180420,-0.027100,-2.091603,-20.137405,7.618320
0.346680,0.153320,-0.119141,-5.335878,-27.229008,4.167939
0.361816,0.148926,-0.095215,-7.282443,-29.282442,9.061069
0.374023,0.156006,-0.314941,-0.351145,-34.045803,7.526718
0.349121,0.220703,-0.404785,-12.404580,-33.961834,5.694656
0.410400,0.333008,-0.346191,-16.175573,-43.083969,7.793893
0.544922,0.235107,-0.224854,-21.832062,-55.709923,4.206107
0.627441,0.026123,0.012939,-16.206106,-48.007633,-2.984733
0.670654,-0.045166,-0.017822,2.816794,-46.343510,0.053435
0.765625,0.062500,-0.145020,14.534351,-44.236641,-4.526718
0.723633,0.631104,-0.541748,-61.396946,-34.893131,25.610687
0.913818,0.241943,0.325928,-15.687023,-34.480915,97.236641
1.333740,0.170166,-0.155762,0.610687,-49.801525,10.374045
1.278320,0.273438,0.451660,0.725191,-28.511450,-43.656490
1.375000,0.365967,0.469238,-10.778625,-11.786260,5.320611
1.984314,0.740234,0.641846,-24.290077,57.633587,33.893131
1.984314,0.404785,0.362549,-58.190838,160.106873,-81.145035
1.665771,0.629395,0.572998,-49.526718,147.793900,-31.251909
1.984314,0.854736,0.328369,-58.679390,135.450378,-96.396950
1.984314,0.901367,0.286133,-50.122139,69.809158,-106.404579
1.720947,0.934082,0.059570,-46.679390,37.992367,-89.198471
1.347412,0.939453,-0.247803,-16.870230,9.175572,-78.931297
0.967285,1.012207,-0.359619,5.190840,-22.030535,-58.732826
1.023682,0.886719,0.141602,2.091603,20.801527,31.984734
0.929199,0.747803,0.245361,27.954199,-7.480916,38.389313
1.121826,0.786865,0.483398,49.236641,-32.893131,39.000000
1.192139,0.816406,0.474854,44.328243,-61.549618,55.213741
1.347168,0.562012,0.445312,42.641220,-70.763359,67.488548
1.399902,0.432617,0.454346,36.022900,-71.786263,59.725189
1.391357,0.422852,0.383789,12.526717,-70.992363,43.717556
1.337646,0.419922,0.390381,-2.206107,-39.000000,24.000000
1.162842,0.323486,0.224121,2.633588,-6.083970,11.305344
1.000244,0.346191,0.153809,22.717558,2.374046,10.816793
0.927490,0.391846,0.050049,34.694656,8.244275,9.847328
0.963379,0.479980,-0.017090,30.748091,12.389313,13.190840
1.027344,0.503662,-0.106201,17.114504,7.183206,15.015267
1.092041,0.471924,-0.098145,2.061069,9.366412,10.465649
1.161865,0.417480,-0.045654,-6.465649,1.206107,6.664122
1.255127,0.428711,-0.003906,-3.885496,0.908397,2.732824
1.275146,0.415283,-0.010010,0.503817,8.290076,-0.213740
1.196777,0.306152,-0.012451,-4.114504,16.290077,1.503817
1.058594,0.237305,0.098145,-0.908397,24.305344,4.297710
0.910889,0.221924,0.067627,11.732824,24.114504,2.839695
0.827637,0.185791,0.055664,16.480917,21.061069,-1.862595
0.764404,0.166260,0.020996,21.274809,20.824427,-6.274809
0.725586,0.226318,-0.019287,21.312977,21.824427,-8.053435
0.674072,0.292236,-0.057861,14.328244,21.885496,-9.053435
0.606445,0.268311,-0.093262,3.000000,15.160305,-6.625954
0.574463,0.234375,-0.002930,-3.167939,13.183207,-5.824428
0.547119,0.216064,0.013428,-2.282443,6.343512,-7.534351
0.537354,0.169189,0.036133,-2.091603,0.916031,-10.022901
0.538574,0.168457,0.058350,2.419847,-2.083969,-9.801527
0.549561,0.231934,0.020020,8.969465,0.351145,-6.923664
0.562988,0.323975,-0.009277,9.290076,4.129771,-4.778626
0.552979,0.372314,-0.030518,3.167939,3.755725,-3.129771
0.552002,0.364502,0.060303,-5.664122,4.580153,-3.251908
0.543457,0.326416,0.152832,-9.015267,5.022901,-5.801527
0.531006,0.285156,0.152344,-10.122137,1.541985,-8.633588
0.516113,0.219971,0.118408,-14.511451,-2.564885,-8.854961
0.489258,0.144287,0.110352,-13.625955,-3.442748,-6.564886
0.481934,0.122559,0.104736,-6.198473,-1.549618,-5.030534
0.487061,0.150391,0.118164,5.969466,3.129771,-5.916030
0.467529,0.191650,0.100098,15.236641,7.389313,-6.106870
0.435303,0.213623,0.066406,16.335878,8.122137,-3.450382
0.408203,0.229980,0.065918,10.038168,6.267176,0.274809
0.410156,0.255859,0.062012,4.480916,-2.312977,1.244275
0.377197,0.222900,-0.013672,-7.007634,-10.893129,2.473282
0.394775,0.256348,-0.047363,-8.664123,-13.816793,9.763359
0.421631,0.276611,-0.157471,-9.763359,-18.931297,7.664122
0.439209,0.283691,-0.167480,-12.083969,-21.671755,3.854962
0.475098,0.193359,-0.041748,-14.648855,-22.122137,2.725191
0.511475,0.058838,0.114746,-10.343512,-19.908398,2.916031
0.561279,-0.067627,0.147217,-5.778626,-21.679390,3.503817
0.624512,0.041992,0.126709,4.557252,-17.022902,3.045802
0.698730,0.296387,0.000488,11.137404,-15.893129,-3.053435
