ax,ay,az,gx,gy,gz
0.853271,0.468018,0.407227,28.625954,16.458015,-10.900764
0.830078,0.446289,0.353271,24.465649,24.900763,-7.396946
0.785645,0.578369,0.628662,41.160305,28.381680,-11.435115
0.885986,0.775879,0.517822,43.534351,-15.847328,-11.740458
0.287354,0.514404,0.959717,31.908398,65.282440,2.442748
1.607422,0.966797,0.192383,46.167938,-50.992367,-23.167938
1.524658,0.804199,-1.694824,22.793894,-88.496185,-30.122137
1.647217,1.761475,0.330566,66.725189,-26.519083,-38.358780
-0.145508,0.703613,1.984314,-6.473282,146.221375,-7.083970
1.615234,0.984619,-2.000000,-10.229008,-53.053436,-35.122139
1.026367,1.862549,1.098145,5.198473,10.770992,-22.290077
0.825439,1.397705,1.581543,-22.000000,22.572519,-17.839695
1.220215,0.600098,-0.202148,-52.061069,-56.450382,-25.984734
0.678955,-0.701416,-1.040771,-90.587784,23.526718,-7.748092
0.460449,0.035889,1.205322,25.381680,56.198475,-5.725191
0.753174,-0.454590,-0.689209,9.854961,45.099236,29.938931
1.067139,0.438965,0.035889,60.763359,-23.480917,17.099237
0.660156,0.693604,0.411377,82.206108,-32.816795,23.160305
0.558350,0.632812,0.407227,68.954201,-30.900763,27.847328
0.625977,0.589600,0.290527,36.572517,-47.503819,31.496183
0.861328,0.532959,0.258057,-0.366412,-73.793892,30.603054
1.068359,0.260986,0.157715,-15.908397,-72.007637,40.251907
1.132324,0.001953,0.401123,6.190840,-23.267176,45.190838
1.155029,0.288574,0.790527,38.877861,-8.519084,25.175573
1.267090,0.447266,0.415039,35.923664,-6.206107,11.198473
0.998291,0.496582,0.500977,45.954197,54.190838,5.290076
1.042725,0.748779,0.521240,30.885496,9.793893,-1.335878
0.931152,0.691162,0.474609,14.374045,29.183207,2.435115
0.956787,0.633789,0.284912,-23.549618,-0.045802,4.129771
0.874023,0.489746,0.423828,-32.083969,23.862595,2.206107
0.757568,0.401123,0.281982,-35.488548,32.908398,9.625955
0.721924,0.447754,0.236572,-15.396947,9.045801,0.824427
0.694092,0.343018,0.355713,5.328244,3.633588,-4.213740
0.725342,0.231445,0.427490,21.427481,0.229008,2.328244
0.837891,0.153809,0.549805,53.175571,-3.816794,7.152672
0.970215,0.131348,0.541260,85.938934,-2.801527,11.618320
1.073242,0.197510,0.472168,124.068703,15.786260,12.274809
1.101318,0.384766,0.363037,157.480911,34.083969,11.847328
1.066650,0.708740,0.264893,164.503815,49.656490,9.236641
1.046875,1.015381,0.341309,158.465652,52.221375,-0.961832
1.044189,1.156982,0.401611,134.816788,48.809162,-11.061069
1.085693,1.160156,0.403076,109.435112,46.419846,-23.343512
1.159912,1.074951,0.320557,102.832062,53.694656,-42.152672
1.178223,1.048828,0.146729,100.832062,64.717560,-62.648853
1.065430,1.094971,-0.048584,97.595421,75.160309,-78.977097
0.868896,1.119873,-0.299805,87.603050,78.854965,-85.076332
0.679687,1.176270,-0.498047,62.809162,71.763359,-85.992363
0.489746,1.246582,-0.678223,19.320610,57.022900,-82.839691
0.275391,1.482666,-0.416016,-9.083969,25.305344,-80.526718
0.197754,1.680176,-0.135742,-58.900764,-35.160305,-66.137405
-0.273926,0.884521,-0.614014,-156.648849,6.236641,-28.946566
0.586914,1.689453,1.158936,-186.656494,-97.458015,-37.778625
0.585937,1.480957,0.935791,-250.137405,-158.938934,-28.389313
-0.041260,0.689697,1.984314,-250.137405,-24.396946,-4.045802
1.183350,-1.167969,-1.677979,-250.137405,-64.709923,-1.557252
1.084229,0.680664,1.984314,-159.786255,-88.488548,-30.885496
0.138672,-0.463135,1.984314,-114.442749,103.190842,-22.610687
0.058105,-0.229736,1.984314,-52.694656,157.885498,-29.358778
0.119385,0.834473,1.984314,7.076336,92.404579,-36.625954
0.467773,0.659668,-0.345459,-52.351147,-1.770992,-29.580153
-0.372070,0.317627,0.958984,-56.320610,103.312981,-13.412213
0.503906,-0.002930,-0.333496,-117.236641,-28.160305,-14.603053
0.410645,0.326660,0.600342,-88.320610,-76.137405,-23.511450
0.161377,0.209961,0.978760,-66.801529,-51.603054,-10.274809
0.228027,0.110107,0.931641,-58.717556,-32.938931,-4.770992
0.319580,0.057617,0.871582,-41.954197,-29.198473,-7.396946
0.436768,-0.004150,0.731201,-27.793894,-44.114502,-5.847328
0.569092,-0.197510,0.415283,-29.809160,-57.465649,7.633588
0.509033,-0.416260,0.276123,-40.305344,-26.091602,26.076336
0.463623,-0.080811,0.685303,-26.847328,-13.099236,25.335878
0.702881,0.341309,0.507080,-44.870228,-59.755726,26.442749
0.636719,0.246582,0.510742,-63.977100,-29.847328,37.557251
0.910889,0.388184,0.800293,-75.274811,-62.320610,21.328245
0.909668,0.162354,0.628174,-93.335876,-35.740459,24.587786
1.108154,0.237061,0.715332,-86.633591,-53.190838,11.946565
1.061279,0.201904,0.682373,-76.946564,-22.152672,1.312977
0.983154,0.195557,0.522217,-78.000000,-0.709924,2.748092
0.905518,0.298096,0.494141,-61.129772,-8.167939,-9.053435
0.769287,0.362549,0.457520,-38.671757,-10.748092,-16.312977
0.685547,0.414307,0.433594,-14.076336,-24.458015,-21.587786
0.677246,0.544922,0.403076,7.366412,-51.977100,-27.938931
0.785400,0.685547,0.394531,9.503817,-77.809158,-32.328243
0.958984,0.842285,0.491943,-4.969466,-84.572517,-34.702290
1.111328,0.915039,0.692139,-16.061069,-67.435112,-35.251907
1.157227,0.824951,0.827148,3.236641,-29.244274,-34.832062
1.095215,0.720703,0.821533,24.839695,6.442748,-41.129772
0.926514,0.616699,0.769531,49.572517,19.396946,-60.038166
0.728027,0.484863,0.728516,84.740456,13.167939,-70.832062
0.600830,0.414062,0.611816,130.656494,5.519084,-72.145035
0.547363,0.531250,0.463867,155.916031,-10.503817,-59.106869
0.623291,0.582764,0.441162,153.465652,-15.167939,-36.984734
0.700928,0.552979,0.367920,127.244278,-1.190840,-28.091602
0.676025,0.409668,0.206299,97.236641,12.763359,-13.610687
0.616211,0.228760,0.148926,70.984734,25.022902,5.656488
0.513184,0.364258,0.543457,84.664124,18.473282,15.893129
0.589111,0.691650,1.032227,81.572517,-31.618320,30.290077
0.524902,0.156738,0.352783,35.366413,41.022900,52.022900
1.079834,1.053467,1.984314,60.832062,-15.045801,15.442748
0.757812,0.929443,1.984314,60.549618,-45.251907,17.396946
-0.203613,0.376709,1.984314,101.206108,67.595421,40.725189
1.167480,-0.247803,-2.000000,10.732824,95.404579,67.061066
0.482666,1.486816,1.984314,63.549618,-51.259541,44.465649
-0.285889,-0.021729,1.984314,30.793894,82.114502,73.862595
-0.058350,-0.213867,1.643066,31.297710,65.587784,77.145035
0.439941,0.630371,1.984314,63.282444,-37.343510,56.748093
1.182129,0.742920,-0.181885,6.923664,-101.251907,43.160305
0.371826,0.399658,0.984863,46.458015,22.824427,38.030533
1.347168,0.464111,0.053223,-10.236641,-55.282444,36.671757
1.004395,0.775635,0.744385,14.977099,-71.954201,20.167938
0.645752,0.624756,1.039551,23.328245,-54.916031,21.404581
0.642334,0.601562,0.880859,25.473282,-59.351147,15.824428
0.854004,0.629883,0.960449,17.763359,-74.389313,4.549618
1.042969,0.520996,0.776367,16.190840,-82.175575,-8.435115
1.112305,0.241211,0.547607,16.213741,-57.167938,-5.618320
0.891113,-0.116211,0.488770,44.778625,12.572519,8.717557
0.703613,0.086670,0.754639,112.328247,19.480917,9.931297
0.847656,0.446045,0.180420,126.786263,-31.809160,7.557252
0.630127,0.555664,-0.111572,125.770996,5.595420,4.786260
0.636475,0.649170,0.021484,94.839691,-36.740459,1.465649
0.502686,0.460693,0.115234,78.992363,-16.572519,34.183205
0.741699,0.504150,0.227295,73.549622,-60.236641,44.213741
0.861084,0.424316,0.374512,97.595421,-50.221375,30.473282
0.868164,0.241943,0.163086,78.961830,-44.297710,23.893129
0.851807,0.286621,-0.039063,64.488548,-52.068703,25.916031
0.782959,0.463867,-0.200195,56.328243,-37.832062,46.076336
0.778320,0.754395,-0.130371,38.740459,-41.083969,62.160305
0.764648,0.715088,-0.061035,16.206106,-59.503819,64.274811
0.783203,0.356445,0.003906,-5.488550,-64.770996,70.000000
0.849854,0.070557,0.131836,1.625954,-63.954197,75.488548
0.923584,0.064209,0.250732,39.480915,-69.442749,71.427483
0.990234,0.474121,0.315186,87.106873,-77.236641,57.702290
0.991943,0.885986,0.193359,93.488548,-72.404579,43.793892
0.908447,0.948242,0.139648,48.603054,-50.458015,46.801525
0.832031,0.708740,0.155762,-7.022901,-28.748091,63.488548
0.762695,0.486328,0.116455,-21.809160,-29.656488,58.832062
0.684570,0.206787,0.172119,0.687023,-45.839695,55.923664
0.745850,0.066406,0.195801,40.938931,-60.816795,63.129772
0.880371,0.227783,0.121094,81.580154,-63.938931,65.167938
0.977295,0.429932,-0.052246,82.862595,-51.259541,61.022900
0.984863,0.652832,-0.129395,55.167938,-40.000000,48.022900
1.045898,0.941650,0.141357,28.900763,-60.900764,12.312977
1.078369,0.855713,0.205811,-6.290076,-95.038170,-1.923664
0.394775,0.126709,0.413086,-15.732824,5.450382,21.977098
1.591064,0.609619,0.875977,22.809160,-74.343513,7.000000
1.386230,0.603027,-0.458252,42.603054,-99.984734,4.381680
0.668945,0.758301,1.984314,97.870232,41.465649,8.877863
0.718506,-0.735840,-1.476807,-4.274809,73.458015,16.977098
1.235596,1.402100,0.681396,53.839695,-40.145039,-0.206107
0.148437,0.497559,1.984314,10.274809,93.839691,13.503817
0.257324,0.158936,1.830078,5.748092,86.564888,3.564885
0.765381,0.583496,1.655273,48.244274,-0.351145,-13.900764
1.209229,0.344727,-1.265381,5.793893,-72.587784,-17.320610
0.557129,0.338135,0.563965,21.557251,86.519081,-7.274809
1.124268,0.208008,-0.806396,-24.282442,-12.458015,0.755725
1.050537,0.572510,0.274902,9.236641,-14.022901,-9.290076
0.682373,0.450195,0.449219,3.564885,11.946565,-1.656489
0.655518,0.400635,0.398926,-1.992366,14.625955,0.694656
0.750000,0.500732,0.293457,1.770992,-3.129771,-5.335878
0.901367,0.544189,0.135742,-3.183206,-36.244274,-7.458015
1.039307,0.393555,-0.083008,-20.977098,-41.480915,2.557252
0.981201,0.215576,-0.003174,-30.244274,4.549618,12.862596
0.920166,0.394775,0.463867,-16.221375,17.251909,7.511450
1.060059,0.486328,0.071777,-30.633587,-26.045801,2.045802
0.913818,0.310059,0.007324,-42.351147,7.610687,7.923664
1.092041,0.362793,0.163086,-39.793892,-31.053434,-2.374046
1.025879,0.271973,0.067871,-49.068703,7.786260,-1.648855
1.100830,0.297852,0.043457,-39.763359,-18.389313,-6.770992
1.050049,0.386230,0.020996,-38.022900,-0.946565,-4.801527
1.032959,0.375732,0.008057,-48.671757,-1.213740,2.954198
1.133301,0.438965,0.163086,-36.259541,-15.152672,-2.625954
1.160400,0.432861,0.130615,-24.603054,-6.297710,-10.977099
1.153564,0.359619,0.022949,-23.290077,1.969466,-10.862596
1.179443,0.320801,0.062988,-21.969465,7.740458,-10.938931
1.159424,0.379639,0.073242,-19.541985,16.702290,-14.198473
1.127441,0.451660,0.171143,-19.709923,23.442749,-21.748091
1.098145,0.488770,0.269775,-18.580153,24.580153,-30.572519
1.069336,0.510742,0.207520,-24.374046,27.595419,-34.595421
1.067139,0.435303,0.038086,-39.656490,35.679390,-33.946564
1.061523,0.243164,-0.043701,-43.000000,37.122139,-36.801525
1.054932,0.069092,0.054687,-28.267176,38.641220,-36.022900
1.024170,0.097412,0.187012,-1.916031,48.015266,-34.244274
0.976562,0.321045,0.208496,24.458015,50.717556,-36.198475
0.928711,0.487793,0.063477,31.312977,40.564884,-41.908398
0.893311,0.460449,-0.019775,20.671755,35.595421,-41.000000
0.892822,0.361084,0.091309,17.961832,39.274811,-39.656490
0.832520,0.263916,0.112549,27.015266,40.374046,-39.305344
0.731201,0.417969,0.369385,51.061069,40.366413,-42.358780
0.713379,0.680664,0.637939,50.854961,4.145038,-42.610687
0.289063,0.047607,-0.065918,21.694656,84.633591,-22.305344
1.068115,0.905518,1.534180,46.366413,-14.129771,-40.610687
0.913086,0.934814,0.886719,38.648853,-72.076332,-35.183205
0.140869,0.682129,1.984314,76.267174,36.137405,-25.404581
0.912109,-0.631592,-2.000000,-8.274809,84.419846,-2.625954
0.993408,1.579590,1.574463,62.557251,-61.809162,-24.305344
-0.040527,0.512207,1.984314,55.893131,78.992363,-5.312977
-0.046875,0.247559,1.899414,39.969467,90.435112,-3.198473
0.395752,0.709473,1.863037,40.984734,-9.435115,-9.992367
0.897705,0.329346,-1.023682,-33.503819,-57.297710,7.801527
0.241455,0.049805,0.715820,25.022902,70.618324,15.175572
1.036865,-0.021973,-0.664551,-24.709923,-5.053435,28.465649
0.900391,0.532959,0.145264,25.015266,-28.335878,14.679389
0.509766,0.605713,0.401611,37.320610,-9.480916,17.977098
0.428955,0.506836,0.273438,22.045801,-2.961832,17.335878
0.487061,0.449463,0.119141,7.549618,-19.786259,13.694656
0.644287,0.472900,0.075928,0.152672,-57.297710,8.847328
0.845947,0.407959,-0.123779,0.404580,-78.099236,11.137404
0.871582,0.238037,-0.131836,9.114504,-42.778625,19.358778
0.826904,0.402832,0.321289,35.549618,-22.931297,13.206107
1.047852,0.623047,0.155029,30.267176,-59.106869,9.297709
0.916260,0.558838,0.069336,19.259542,-17.290077,19.083969
0.978516,0.656738,0.352051,4.717557,-38.694656,15.312977
0.857910,0.474854,0.113525,-17.305344,-10.137404,31.732824
0.917236,0.413086,0.166260,-14.320611,-38.496181,36.946564
0.883301,0.366455,0.186035,3.259542,-25.259542,41.564884
0.938965,0.378906,0.133057,3.213740,-42.519085,43.099236
1.033203,0.510986,0.197998,16.854961,-57.145039,27.702290
1.041748,0.564941,0.117188,15.389313,-50.496181,19.519083
1.079346,0.551758,0.136230,-0.282443,-41.587788,21.236641
1.101074,0.495605,0.155273,-12.732824,-30.488550,21.877863
1.092773,0.379883,0.161865,-13.885496,-17.610687,20.885496
1.055176,0.274658,0.095947,-7.465649,-11.824428,19.763359
1.026611,0.251709,0.095459,-0.015267,-11.022901,17.435114
1.015137,0.404053,0.087402,12.175572,-16.045801,11.725191
0.999268,0.541748,0.041016,9.870229,-22.053434,7.099236
0.973877,0.476807,-0.033447,-14.083969,-21.145039,13.022901
0.969238,0.298340,-0.108643,-27.763359,-16.312977,25.297710
0.982910,0.265625,-0.048096,-20.099237,-15.007633,28.541985
0.947510,0.307373,-0.107666,-13.809160,-23.610687,26.984734
0.954834,0.366455,0.038330,-11.282443,-29.633587,31.076336
0.947510,0.413086,-0.103760,0.030534,-29.190840,29.572519
1.001221,0.392578,-0.043213,1.038168,-26.687023,21.900763
0.993896,0.302490,-0.170166,-8.984733,-25.396946,14.786260
0.872559,0.301025,0.039795,-11.458015,1.435115,16.045801
0.834961,0.447998,0.369141,-14.610687,-16.977098,19.099237
0.540771,-0.101074,-0.154297,-65.244278,40.687023,35.519085
1.249756,0.704346,1.422852,-0.381679,-15.374045,11.778625
1.149170,0.821289,0.377197,-0.160305,-88.618324,10.038168
0.544922,0.851318,1.984314,30.473282,35.396946,16.458015
0.687988,-0.690674,-1.133057,-45.641220,11.198473,11.809160
1.529541,1.343750,0.134277,49.954197,-69.618324,-7.022901
0.443604,0.760742,1.984314,25.862595,56.984734,18.000000
0.514893,0.581787,1.984314,13.396947,57.015266,16.587786
1.193604,0.801758,1.134766,13.931297,-34.167938,0.175573
1.094482,-0.023437,-1.373047,-59.305344,-40.427483,3.893130
0.950439,0.405762,1.389893,11.167939,54.923664,-2.221374
0.686035,-0.214111,-0.668701,-42.000000,15.778625,10.557252
1.419189,0.190918,-0.217041,-3.061069,-43.587788,-13.694656
1.228271,0.326660,0.152832,24.030535,-45.221375,-19.274809
0.991211,0.395508,0.360596,21.900763,-29.541985,-18.320610
1.061523,0.413086,0.012207,0.007634,-40.152672,-13.541985
1.187988,0.380615,-0.329590,-30.358778,-44.083969,-6.282443
1.137207,0.207275,-0.304199,-44.076336,5.977099,0.961832
0.858643,0.201660,0.082275,-29.351145,51.847328,3.877863
0.872559,0.343262,-0.011963,-16.770992,15.801527,4.580153
0.788818,0.186768,-0.363037,-17.396946,35.763359,9.351145
0.668213,0.392090,0.063721,14.641221,24.435114,-1.786260
0.762451,0.395996,-0.267334,0.580153,-4.900764,5.847328
0.848389,0.498535,0.064941,14.557252,-14.557252,0.221374
0.923340,0.385254,-0.031982,6.328244,-3.061069,8.267176
1.031006,0.425537,0.172363,2.389313,-7.183206,6.190840
0.942627,0.431641,0.142090,-2.564885,25.778625,7.824428
0.849854,0.366943,0.108887,-15.282443,29.748091,12.877863
0.817383,0.320068,-0.006592,-13.061069,15.083969,10.465649
0.858398,0.254883,-0.007813,-11.877863,4.053435,6.328244
0.903076,0.214355,0.012695,-7.083970,0.687023,5.160306
0.947021,0.258057,0.077393,0.832061,1.694656,7.870229
0.952393,0.347412,0.047607,-5.641222,8.748092,7.717557
0.931396,0.405518,0.051025,-19.534351,7.763359,7.748092
0.937256,0.346680,0.024658,-24.992367,6.274809,10.068703
0.949219,0.238281,0.045410,-25.221375,12.992367,9.946565
0.930176,0.195557,0.078125,-17.274809,20.984734,6.305344
0.923584,0.228516,-0.005127,-14.519084,8.404580,7.106870
0.966797,0.265137,0.091553,-7.961832,5.030534,5.328244
0.987549,0.270996,0.113770,-9.908397,9.488549,3.648855
1.009766,0.267334,0.073730,-16.961832,8.389313,3.305344
1.022949,0.273926,0.093750,-15.473283,12.358779,1.687023
1.009033,0.315186,0.054443,-11.923664,12.786260,2.267176
0.996826,0.385498,0.045166,-12.954199,8.572519,2.778626
0.970703,0.195801,-0.182373,-36.267174,15.290076,11.221375
0.945068,-0.040283,-0.192139,-41.671757,43.114502,14.610687
1.516602,0.406250,-0.002441,-23.022902,-50.877861,-2.488550
0.559570,-0.377686,-1.183594,-58.923664,58.549618,19.305344
0.773437,-0.528320,0.107666,-32.900764,125.137405,15.320611
1.395020,-0.361084,-2.000000,-67.641220,21.061069,7.908397
1.167480,1.310059,1.397461,25.679390,-72.061066,-10.251908
0.471191,-0.594238,-0.042480,-37.015266,115.809158,20.389313
1.523682,-0.001221,-2.000000,-69.030533,-1.832061,2.160305
1.452637,0.103760,-2.000000,-65.885498,-30.000000,-0.580153
0.873535,-0.207275,-0.812012,-48.480915,64.267174,11.480916
0.983643,0.517334,1.791748,34.091602,34.183205,-1.351145
0.856689,-0.074951,-1.033447,-52.358780,15.534351,9.312977
1.201904,0.567627,0.712158,11.740458,-7.732824,-11.931297
0.526123,0.265869,0.387939,1.564885,24.809160,5.061069
0.694824,0.113525,0.255615,-11.900764,56.022900,8.732824
0.804199,0.188965,0.271484,-11.458015,52.519085,8.511451
0.820801,0.226318,0.363037,-18.305344,42.961834,6.740458
0.884277,0.243896,0.521973,-15.091603,27.938931,4.381680
1.020752,0.229004,0.202393,-15.549619,-7.725191,-3.488550
1.010010,-0.000488,-0.123291,-18.755726,0.198473,-2.748092
0.818359,0.022217,0.271240,0.694656,37.893131,-1.106870
0.967773,0.347412,0.270752,1.000000,-15.328244,-7.267176
0.912842,0.234619,-0.092285,-9.427481,16.969465,1.068702
0.987061,0.351074,0.213867,4.412214,-2.022901,-5.564886
0.929199,0.279541,-0.083984,-8.137404,15.068703,1.679389
1.041748,0.367920,0.152832,5.473282,-11.488549,-2.038168
0.998535,0.351563,0.089600,8.229008,2.015267,-6.717557
0.979736,0.297119,0.165771,-9.694656,-1.961832,5.320611
0.982666,0.343994,0.219727,-1.954198,5.335878,0.458015
0.886963,0.301514,0.168213,-9.885496,13.511451,-0.786260
0.882324,0.258057,0.040039,-9.511451,2.152672,-0.358779
0.942627,0.248047,0.028564,0.885496,-6.801527,-5.358778
0.994629,0.282471,0.061035,3.167939,-6.015267,-3.274809
1.072998,0.327637,0.027588,-0.961832,-7.488550,0.198473
1.095215,0.316895,0.071289,0.709924,-2.625954,-4.091603
1.024658,0.324463,0.152588,-0.007634,-0.175573,-5.374046
0.944336,0.322998,0.214844,-10.824428,2.335878,-1.267176
0.905762,0.264893,0.178223,-16.587786,4.572519,-1.503817
0.901123,0.145020,0.033936,-13.862596,-5.435114,-3.839695
0.924561,0.106201,0.079590,6.648855,-8.564885,-6.877862
0.925293,0.208252,0.113525,19.358778,-12.381680,-7.595420
0.979004,0.357178,0.105225,15.877863,-28.236641,-5.793893
1.075684,0.378418,0.145264,7.328244,-30.374046,-5.167939
1.106689,0.312012,0.165283,1.480916,-17.877863,-4.832061
1.056152,0.240967,0.140869,-4.977099,-5.809160,-4.320611
0.979004,0.365723,0.407959,19.778625,0.748092,-11.427481
0.997559,0.416504,0.270752,30.465649,-42.786259,-12.343512
0.450195,-0.126953,-0.052734,19.625954,31.633587,4.763359
1.257568,0.746826,1.739746,59.442749,-83.862595,-24.496183
1.133057,0.943115,0.970215,43.412212,-147.870224,-28.152672
0.489258,0.583008,1.984314,75.183205,-58.435116,-27.587786
1.243164,-0.728271,-1.842285,-10.839695,79.648857,-2.458015
1.341553,1.062988,1.188721,37.007633,-101.442749,-34.374046
0.237061,0.239990,1.984314,77.312981,-3.404580,-19.687023
0.259766,0.261230,1.984314,84.603050,3.656489,-19.938931
0.850830,0.700928,1.049072,48.320610,-76.160309,-30.335878
0.624023,0.075928,-1.283691,-17.572519,28.267176,-18.251909
0.848877,0.729004,1.382568,37.603054,-22.488550,-37.412212
0.276855,0.002686,-0.462646,-22.251909,35.190838,-7.603054
1.055664,0.165039,-0.411133,-28.832062,13.061069,-19.305344
0.886719,0.274170,-0.146240,7.007634,-3.603053,-25.351145
0.650146,0.262939,-0.136230,16.877863,8.900764,-19.801527
0.479248,0.194580,-0.145020,-0.748092,21.458015,-4.908397
0.333008,0.086182,-0.259521,-28.267176,35.870228,10.801527
0.176270,-0.056641,0.021729,-52.679390,52.137405,21.030535
0.254639,0.006836,0.334473,-44.236641,18.671755,16.885496
0.447266,-0.038330,-0.054687,-35.893131,-2.022901,15.480916
0.250000,-0.145752,0.059814,-16.458015,46.221375,20.099237
0.282715,0.038574,0.096436,-32.396946,7.213740,25.564886
0.177246,0.005615,-0.151611,-51.114502,42.633587,39.374046
0.211670,0.077148,0.046143,-68.786263,-1.732824,43.595421
0.156738,-0.031738,0.046143,-76.664124,29.389313,50.244274
0.232178,-0.040527,-0.164795,-87.633591,6.022901,60.709923
0.350342,0.184570,-0.089600,-50.519085,-19.297710,62.511452
0.463867,0.379639,-0.274170,-43.603054,-31.305344,49.916031
0.586426,0.372559,-0.296143,-78.145035,-72.458015,32.061069
0.831055,0.307617,-0.177734,-106.007637,-115.748093,42.931297
1.291748,0.380371,0.117920,-102.152672,-146.946564,77.221375
1.984314,0.366455,0.463379,-82.022903,-181.748093,174.358780
1.984314,0.796143,0.704834,-28.091602,-202.000000,226.687027
1.984314,1.134766,0.615723,-29.244274,-94.137405,119.236641
1.984314,0.464600,0.228027,-46.366413,82.488548,-73.862595
1.984314,-0.146973,-0.246826,-29.679390,64.587784,-80.541985
1.948242,0.134766,-0.428955,9.045801,-9.442748,-25.847328
1.969238,0.533691,-0.093994,22.328245,-4.229008,-47.450382
1.731689,0.359619,0.080322,14.129771,14.259542,-80.610687
1.567627,0.144287,0.128662,10.580153,14.061069,-77.763359
1.615723,-0.059570,0.134766,28.282442,-11.419847,-72.992363
1.729736,-0.175781,0.111084,63.106869,-12.007633,-93.198471
1.693359,-0.182617,-0.009521,97.893127,5.885496,-118.503815
1.472656,0.005127,-0.236816,141.755722,-4.900764,-117.328247
1.516846,0.479004,-0.187500,177.778625,-68.053436,-90.946564
1.712402,0.810303,-0.331787,169.198471,-62.984734,-63.061069
0.849609,0.800537,0.381104,146.977097,34.916031,-33.610687
1.984314,1.205322,-0.270752,108.198471,-56.274811,-50.045803
1.799805,1.202637,-1.883057,60.870228,-76.312981,-47.984734
1.302246,1.555420,1.159668,83.870232,-14.488549,-25.450382
0.210937,-0.439697,0.333496,0.099237,131.908401,0.984733
1.579834,0.888428,-1.427979,61.427483,-81.809158,-39.755726
0.480713,0.817871,1.984314,78.145035,19.992367,-15.274809
0.330078,0.655518,1.984314,66.030533,36.122139,-11.290076
0.823730,0.708984,0.733398,28.213741,-47.480915,-23.519083
0.492920,-0.290039,-1.350586,-43.603054,3.396947,-8.045801
0.399414,0.235596,1.624756,37.015266,69.274811,-11.251908
0.002197,-0.393311,-0.521729,-13.931297,52.564884,15.152672
0.663818,0.117432,0.139160,10.183207,5.938931,-7.526718
0.290283,0.255859,0.585693,49.534351,-4.328244,-12.053435
0.166748,0.288086,0.528809,40.793892,-10.244275,-11.778625
0.256592,0.298584,0.386230,19.259542,-29.458015,-11.984733
0.394531,0.273926,0.103027,2.480916,-45.862595,-16.053434
0.382324,0.058594,-0.105713,-15.503817,-25.984734,-13.320611
0.242676,-0.013428,0.145508,-18.595419,23.022902,-5.755725
0.340088,0.205078,0.343994,-6.160306,1.832061,-10.389313
0.376465,0.013428,-0.170654,-22.603054,-11.801527,1.625954
0.250488,-0.029785,0.274902,-1.358779,25.885496,-0.396947
0.312744,-0.062012,0.009033,-17.618320,-6.106870,1.664122
0.199463,-0.039307,0.052002,0.961832,26.931297,4.213740
0.228027,-0.104004,-0.119629,-16.312977,8.404580,15.908397
0.276123,0.000000,0.020508,-1.022901,20.366413,20.862595
0.236572,0.038330,-0.069824,-11.870229,32.175571,27.343512
0.257568,0.092773,-0.137695,-24.412214,14.358779,31.297710
0.259033,0.132080,-0.141846,-31.946566,18.007633,24.656488
0.176758,0.052002,-0.153320,-41.648853,23.587786,24.641222
0.133301,-0.035889,-0.283447,-35.389313,15.244275,30.083969
0.155518,-0.003174,-0.379395,-34.641220,-5.167939,36.045803
0.195312,0.047119,-0.313721,-46.748093,-22.381680,38.816795
0.212402,0.062500,-0.271729,-76.610687,-27.969465,44.854961
0.321533,0.225098,-0.385498,-89.702293,-32.282444,60.824429
0.434326,0.341064,-0.468750,-118.564888,-42.809162,64.946564
0.687744,0.541992,-0.603027,-119.251907,-64.267174,86.488548
1.101074,0.765625,-0.477295,-115.511452,-103.847328,104.274811
1.572754,0.266113,-0.142090,-142.114502,-122.587784,197.885498
1.984314,0.719971,0.390381,-156.664124,-115.923668,248.175568
1.984314,1.010986,0.536133,-125.687019,-154.396942,213.442749
1.984314,-0.501709,0.993896,-102.595421,37.534351,-19.618320
1.984314,-0.773437,0.509033,-20.244274,180.931305,-4.557252
1.984314,0.263428,0.395508,-17.854961,87.709923,-16.961832
1.833984,0.214600,0.552734,4.916030,7.030534,-61.251907
1.493164,0.135254,0.327637,-2.320611,7.748092,-103.725189
0.493652,0.218994,0.880371,31.908398,49.450382,-54.725189
1.810547,0.860107,0.222900,27.351145,-119.992363,-50.015266
1.984314,0.625732,-1.402100,8.931297,-174.503815,-91.732826
1.984314,0.276367,1.592285,70.709923,-205.824432,-142.473282
1.421143,-1.707275,0.654785,80.977097,16.213741,-123.534348
1.984314,0.593994,-1.544678,107.427483,-132.755722,-180.954193
1.529297,1.109375,1.812988,185.297714,-82.282440,-149.572525
1.119629,1.206299,1.629395,185.374039,-44.946564,-101.183205
1.530273,1.322998,-0.060547,125.083969,-71.236641,-66.954201
1.130859,0.496826,-1.730957,37.992367,62.503819,-25.213741
1.000732,1.028076,1.032715,72.740456,48.022900,-30.259542
0.212158,0.114746,-0.942871,8.129771,91.580154,-18.877863
0.984375,0.274414,-0.562500,-8.038168,14.038168,-31.061069
0.644531,0.327637,-0.203125,15.641221,-37.946564,-20.519083
0.606201,0.379883,0.089111,39.030533,-59.931297,-26.496183
0.684570,0.363281,0.086914,42.312977,-67.007637,-34.335876
0.769775,0.254883,-0.020508,19.450382,-51.900764,-27.083969
0.711426,0.000000,-0.141602,-10.839695,-5.267176,-10.244275
0.482666,-0.145020,0.168945,-20.114504,56.000000,2.633588
0.436768,0.010010,0.553955,-10.297709,41.076336,-10.969465
0.386475,-0.132324,0.057617,1.786260,18.229008,-6.854962
0.193848,-0.074219,0.312012,33.862595,34.679390,-0.893130
0.371582,0.117432,0.296143,19.305344,-21.297710,-5.404580
0.307617,0.173340,0.301514,19.267176,2.198473,-14.877863
0.391113,0.103516,0.167480,-11.664123,-25.320610,-15.755725
0.377930,0.087891,0.288818,-6.519084,-2.610687,-16.633587
0.287354,-0.030273,0.104736,-25.702290,17.396946,0.114504
0.291992,-0.018555,0.146973,-25.404581,16.763359,9.076336
0.256836,0.033447,0.056885,-13.610687,19.496183,3.465649
0.205811,-0.013916,0.030518,-2.221374,16.458015,2.106870
0.182373,-0.117676,-0.021484,7.603054,16.618320,4.946565
0.171875,-0.117920,-0.003174,11.000000,19.236641,13.312977
0.179443,0.018066,0.033447,9.114504,19.137405,19.671755
0.198730,0.167969,0.061279,-9.816793,13.022901,21.603054
0.199463,0.193604,-0.004639,-34.580154,14.061069,19.221375
0.192139,0.059814,-0.150391,-49.374046,11.839695,23.526718
0.203125,-0.023682,-0.121582,-42.717556,16.862595,28.549618
0.207275,0.015869,-0.139893,-31.664122,15.450381,30.847328
0.220947,0.067139,-0.179443,-28.969465,6.442748,32.870228
0.239014,0.105225,-0.250244,-41.145039,-1.740458,30.877863
0.269531,0.111328,-0.295410,-75.389313,-12.572519,47.419846
0.417236,0.285156,-0.389404,-87.015266,-17.603054,63.083969
0.543945,0.337646,-0.633057,-107.839691,-17.954199,83.862595
0.684814,0.460449,-0.950928,-147.809158,-15.618320,124.206108
1.029053,0.749023,-0.604980,-142.473282,-41.488548,186.694656
1.792725,0.769043,-0.130371,-114.358780,-78.480919,248.175568
1.984314,0.387695,0.814453,-85.694656,-41.351147,248.175568
1.984314,1.384277,1.618652,-60.801525,160.595413,96.167938
1.984314,0.025146,0.399170,-63.763359,228.717560,-21.366413
1.604736,-0.026855,1.969238,24.496183,39.389313,7.740458
1.749512,-1.560303,0.669434,-34.984734,6.977099,-41.152672
1.970947,0.725586,0.060059,35.251907,-49.366413,-136.969467
-0.086670,0.230713,1.984314,61.595421,73.312981,-62.061069
0.110352,-0.194824,1.984314,68.564888,-53.549618,22.778625
1.730469,-0.139404,1.012939,81.229004,-250.137405,10.687023
1.984314,-0.531738,-1.171875,31.290077,-223.076340,-64.503815
1.984314,-0.004150,1.407227,105.396950,-71.366409,-148.030533
1.673096,-0.669922,-0.907471,63.007633,-31.274809,-207.412216
1.981689,-0.234619,-0.682129,108.473282,-84.526718,-230.000000
1.435059,0.443115,-0.249756,179.374039,-131.610687,-198.099243
1.199951,0.963623,-0.040771,225.916031,-149.167938,-156.091599
1.253662,1.132813,-0.033936,201.496185,-101.519081,-127.832062
1.305420,1.007813,-0.234619,132.129776,-49.580154,-105.213737
1.126221,0.634277,-0.461914,53.183205,6.473282,-60.396946
0.793701,0.357666,-0.218750,1.694656,74.419846,-7.641222
0.708008,0.427490,0.103271,15.419847,76.297707,-4.839694
0.750977,0.390381,-0.276367,12.564885,22.068703,-25.290077
0.496338,0.155518,-0.182861,28.450382,43.656490,-33.580154
0.560303,0.117432,0.052002,28.961832,3.893130,-33.572517
0.416504,-0.015869,0.024170,39.854961,35.526718,-31.167938
0.447998,0.074219,0.104736,32.137405,13.007633,-20.519083
0.339844,0.148193,0.156250,33.160305,35.595421,-17.938931
0.270264,0.057861,0.107666,-6.267176,33.938931,-1.641221
0.312256,0.095215,0.218262,-17.908398,19.374046,2.229008
0.310059,0.067139,0.163818,-13.641221,17.656488,-1.290076
0.307129,0.008057,0.144531,-9.175572,4.793893,-4.282443
0.332764,0.016846,0.137939,-4.114504,-2.625954,-3.091603
0.361084,0.057617,0.115234,-3.503817,-0.282443,0.610687
0.347412,0.078613,0.132324,-14.625955,8.206107,1.259542
0.266357,0.020996,0.116943,-30.786259,19.748091,2.946565
0.189941,-0.061768,0.068604,-37.435116,27.763359,7.320611
0.145264,-0.148682,-0.053223,-31.351145,27.603054,9.572519
0.148682,-0.146973,-0.149658,-19.519083,24.519083,14.000000
0.187012,-0.066162,-0.176270,-7.145038,22.259542,16.488550
0.194580,0.025391,-0.232910,-9.954199,28.641222,18.282442
0.165283,0.112549,-0.230957,-24.564886,35.610687,24.519083
0.143066,0.151367,-0.147705,-33.480915,36.938931,29.053434
0.124023,0.122070,-0.208496,-37.938931,31.030535,34.229008
0.141113,0.078613,-0.222168,-59.022900,25.992367,42.709923
0.173828,0.112061,-0.367188,-75.938934,13.083969,34.305344
0.032959,0.172852,-0.164062,-56.541985,3.358779,24.335878
0.022705,0.402344,0.083008,-57.725189,-31.122137,50.541985
-0.180908,0.017822,-0.454346,-102.564888,45.587788,95.145035
0.579102,0.899658,1.239746,-90.091606,-35.839695,106.992363
0.558350,1.125488,0.348877,-180.946564,-80.152672,174.465652
0.302979,0.714600,1.984314,-224.343506,52.045803,248.175568
1.925293,-0.788574,-2.000000,-250.137405,49.045803,248.175568
1.984314,0.354736,1.984314,-32.412212,-117.244278,248.175568
1.984314,0.460937,1.984314,2.076336,248.175568,50.328243
1.538330,-1.232422,1.984314,-30.580153,248.175568,19.656488
1.984314,-0.103271,1.739502,30.877863,-94.251907,-17.320610
1.984314,-0.585693,-0.355957,-29.427481,-101.702293,-109.312981
0.641846,0.028564,1.589600,34.961834,65.763359,-122.748093
0.445557,0.279053,-0.428711,-4.229008,12.854961,-75.687019
0.916992,0.102539,0.656494,46.488548,-153.396942,20.526718
1.637939,0.170898,0.780518,79.435112,-250.137405,32.053436
1.984314,0.152832,0.749512,104.450378,-250.137405,-106.381676
1.984314,-0.301758,0.194580,107.129768,-196.129776,-187.328247
1.984314,-0.454346,-0.359375,96.595421,-134.709930,-207.580154
1.984314,-0.304688,-0.562744,87.740456,-63.931297,-214.129776
1.510498,-0.007080,-0.198486,128.671753,-13.954199,-191.671753
1.114258,0.615479,0.089844,170.465652,-57.671757,-134.297714
1.113281,0.853027,-0.368896,109.931297,-35.519085,-60.916031
0.955566,0.935303,-0.089600,47.725189,51.351147,-7.290076
1.026855,0.956543,-0.154053,-9.137404,50.061069,-0.587786
0.788330,0.614258,-0.124268,-22.175573,95.335876,0.732824
0.702881,0.227539,-0.129395,-33.000000,70.450378,-2.061069
0.552002,0.031982,0.075928,3.557252,68.679390,-20.244274
0.382568,-0.204346,-0.107422,26.801527,49.511452,-23.175573
0.356689,-0.200684,-0.145996,49.236641,10.984733,-25.679390
0.335449,-0.034912,-0.067871,63.267174,-6.122138,-39.610687
0.331299,0.127686,0.032471,45.641220,-9.664123,-39.122139
0.326660,0.220703,0.008789,20.496183,-4.839694,-28.213741
0.332764,0.210693,0.080566,11.870229,-1.862595,-25.175573
0.280029,0.140137,0.165771,13.473283,3.793893,-18.549618
0.253906,0.135010,0.180176,-15.503817,30.213741,17.106871
0.322266,0.046387,0.196045,1.992366,50.839695,21.496183
0.253662,-0.102295,0.105957,19.488550,46.633587,7.175572
0.146973,-0.081299,0.030762,25.419847,41.114502,1.282443
0.103027,0.048340,-0.002441,18.763359,19.793894,5.580153
0.151611,0.192871,0.039795,-0.007634,-3.916031,5.725191
0.247314,0.238281,0.064453,-27.984734,-18.870230,-0.877863
0.324707,0.078613,0.050537,-48.732826,-19.862595,-3.366412
0.386475,-0.042969,0.091553,-45.312977,-7.656488,1.908397
0.401367,-0.063232,0.118164,-44.541985,7.946565,7.603054
0.380127,-0.078125,0.197266,-41.297710,18.725191,11.557252
0.279541,0.089355,0.332031,-29.580153,37.000000,17.000000
0.312988,0.327881,0.328857,-30.656488,1.526718,18.114504
-0.292236,-0.051758,0.333984,-40.244274,71.984734,31.167938
0.752686,0.609863,0.574951,14.595420,-27.297710,-2.656489
0.615479,0.596191,-1.149414,3.129771,-93.045799,10.732824
0.247070,0.859131,1.765137,26.984734,10.061069,37.137405
-0.203125,-0.852783,-0.026855,-61.679390,39.961834,47.832062
0.169678,0.873779,1.984314,0.114504,-96.885498,33.839695
-0.147949,-0.197754,1.432373,-29.847328,48.404579,70.679390
0.134521,-0.177002,0.816162,-65.328247,68.007637,106.061066
0.582520,0.586914,1.471680,-98.076332,-8.122137,169.198471
1.853760,0.658203,-0.748535,-149.793900,-56.702290,224.206100
1.916504,0.233154,0.584229,-63.496181,29.175573,248.175568
1.984314,0.445557,-0.055664,-76.083969,-51.374046,248.175568
1.984314,0.462891,1.118896,-44.770992,100.137405,58.145039
1.984314,-0.609619,0.975830,-41.007633,207.496185,-56.786259
1.565186,-0.637207,0.427734,-12.068703,96.908394,-72.358780
1.139648,-0.170410,0.628906,20.358778,26.458015,-104.580154
0.810059,0.184570,0.673584,15.099236,28.274809,-106.740456
0.771484,0.239258,0.282959,10.847328,-28.091602,-68.809158
1.165283,0.134521,0.346191,16.946566,-106.755722,1.938931
1.815918,0.322510,0.820801,60.083969,-173.694656,18.511450
1.984314,0.534180,0.417725,51.770992,-185.137405,-74.305344
1.984314,-0.025146,0.368652,68.152672,-101.091606,-175.587784
1.984314,-0.328369,0.220215,87.473282,-85.137405,-214.526718
1.706055,-0.177246,0.090576,116.740456,-50.977100,-189.190842
1.500732,0.169434,-0.246582,119.526718,-76.725189,-152.244278
1.258789,0.548584,-0.177490,121.847328,-26.908398,-102.778625
1.109619,0.725098,-0.372314,81.519081,-17.175573,-38.557251
1.207031,0.850830,-0.321045,47.503819,-8.473283,-12.206107
1.100098,0.623779,-0.354492,14.931297,37.366413,-18.687023
0.873535,0.223633,-0.346924,-4.801527,68.595421,-15.007633
0.666748,0.035889,-0.183594,13.458015,72.870232,-18.000000
0.477539,-0.044189,-0.131592,15.358779,51.076336,-19.083969
0.383057,0.016846,-0.079590,12.366412,15.870229,-18.091602
0.421143,0.113281,0.005859,8.938931,-16.030535,-10.893129
0.547363,0.214600,0.060547,-10.206107,-28.458015,-4.900764
0.626465,0.244141,0.099609,-26.213741,-14.954199,-2.396947
0.592285,0.188965,0.155273,-28.374046,13.305344,-0.183206
0.455811,0.088135,0.089355,-28.175573,36.793892,4.847328
0.311768,0.017334,-0.007324,-23.374046,43.938931,10.015267
0.230957,0.034424,0.007568,-11.198473,32.022900,6.106870
0.188477,0.042236,0.030518,-6.465649,9.251908,-1.381679
0.206787,0.031738,0.067383,-8.122137,-12.129771,-8.282443
0.240479,0.005127,0.120361,-6.984733,-17.099237,-13.770992
0.233887,-0.090332,0.082520,-9.534351,-8.832061,-12.366412
0.225342,0.077637,0.368652,6.801527,-1.946565,-13.152672
0.226807,0.268311,0.497070,12.625955,-27.015266,-6.251908
-0.274414,-0.243896,0.021240,-12.625955,56.641220,14.183207
0.567627,0.617432,1.672607,42.312977,-25.748091,0.839695
0.408936,0.712402,0.797852,31.312977,-84.648857,10.503817
-0.302002,0.294189,1.984314,32.679390,48.381680,24.160305
0.449707,-0.882812,-2.000000,-60.870228,44.519085,21.839695
0.537354,0.840088,1.522705,44.396946,-50.480915,3.053435
-0.525635,0.001465,1.984314,21.778625,84.274811,28.664122
-0.407715,-0.002441,1.984314,12.778625,79.145035,27.641222
0.170654,0.513672,1.751709,9.480916,-5.374046,18.137405
0.394043,0.034668,-1.464355,-77.870232,-49.778625,20.770992
-0.024170,0.223877,1.042969,-46.114502,68.870232,22.083969
0.268555,-0.327881,-0.892090,-87.267174,14.259542,28.763359
0.595459,0.101318,-0.206299,-43.259541,-35.045803,14.335877
0.248291,0.310791,0.157227,-16.137405,-62.694656,13.564885
0.225586,0.432617,0.134033,-30.267176,-90.389313,17.007633
0.540283,0.488037,-0.004883,-64.862595,-106.740456,55.312977
0.978516,0.514160,-0.438232,-113.488548,-108.229004,95.122139
1.423340,0.349121,-0.669434,-165.038162,-61.076336,182.450378
1.850586,0.247070,-0.183594,-158.679382,-5.687023,237.839691
1.984314,0.138672,0.304443,-60.312977,-71.648857,248.175568
1.984314,1.021240,1.034424,-62.099236,156.290070,129.923660
1.984314,-0.545898,0.394531,-83.809158,248.175568,-5.465649
1.984314,-0.611816,0.231934,-14.511451,63.526718,-5.694656
1.984314,-0.053223,0.694580,-7.282443,-25.450382,-71.618324
1.486328,0.155029,0.472656,11.274809,-15.793893,-113.244278
0.879395,0.571533,0.629395,18.419847,31.351145,-97.526718
0.718018,0.477783,0.333496,29.778625,-31.122137,-31.816793
1.194580,0.223877,0.195557,45.992367,-158.534348,35.129772
1.949951,0.128906,0.179443,64.358780,-184.343506,0.106870
1.984314,0.055908,0.074219,82.389313,-145.374039,-137.854965
1.984314,-0.557861,-0.088379,79.129768,-67.946564,-222.656494
1.765869,-0.770020,-0.135742,95.496185,-23.099237,-206.366409
1.324707,-0.302734,-0.043213,144.534348,-15.480916,-143.358780
1.099121,0.445801,-0.103760,170.076340,-10.656488,-66.908394
1.143799,1.049072,-0.102783,142.099243,-32.122139,-20.343512
1.241455,1.200195,-0.040283,89.793892,-8.007633,-23.984734
1.117432,0.795410,-0.058350,30.045801,44.145039,-26.778625
0.880859,0.224854,-0.046387,-5.351145,83.290077,-3.183206
0.669189,-0.080566,-0.046631,-9.351145,98.236641,12.580153
0.482910,-0.132080,-0.107178,4.824428,79.572517,10.251908
0.391357,-0.024902,-0.087158,16.145039,32.839695,-4.519084
0.386230,0.073730,-0.029297,11.564885,-13.045801,-17.832062
0.465820,0.090576,0.010742,8.946565,-36.419846,-21.908398
0.564453,0.039307,-0.066162,-0.083969,-42.809162,-26.167938
0.350830,-0.011230,0.180908,9.732824,8.213740,-28.389313
0.095703,0.071045,0.464355,19.374046,42.259541,-2.763359
0.601074,-0.078613,-1.172119,-38.358780,53.480915,19.259542
-0.267578,0.080811,1.245117,16.778625,126.076332,14.969465
-0.455811,0.006592,1.984314,28.847328,84.717560,24.106871
-0.328613,-0.791260,-0.433838,-22.068703,138.519089,32.381680
1.058350,0.745850,-1.428467,-11.519084,-82.267174,-6.061069
-0.761963,-0.302490,1.984314,39.351147,83.648857,16.954199
-0.008057,-0.713623,-1.434570,-19.175573,110.954201,20.145039
0.045166,-0.616943,-1.461182,-17.106871,107.381676,17.442749
-0.353271,-0.325928,0.626953,25.801527,112.114502,21.679390
0.328613,0.416504,0.845703,27.007633,-55.007633,11.801527
-0.341309,-0.292969,-1.024658,-16.030535,37.083969,24.557251
0.825684,0.389648,0.217773,8.465649,-67.282440,-3.541985
-0.007324,0.253174,0.603027,37.862595,-30.961832,-5.748092
-0.100342,-0.002441,0.352295,10.694656,22.435114,6.503817
-0.099854,-0.005859,0.059326,-25.488550,43.312977,19.786259
-0.155029,0.092285,0.189453,-59.190838,33.687023,23.465649
-0.150391,0.176514,0.282471,-70.587784,8.816793,38.740459
0.068115,0.204834,-0.051025,-77.343513,-24.641222,65.977097
0.275146,0.039795,-0.404541,-100.786263,-8.893129,83.702293
0.268066,0.062500,-0.130859,-98.458015,18.022902,87.488548
0.633545,0.422119,-0.413330,-119.969467,-76.916031,102.549622
1.308350,0.350586,-0.557861,-160.725189,-110.717560,247.274811
1.984314,-0.289551,0.019531,-69.938934,-187.847336,248.175568
1.984314,1.161377,1.018066,-130.908401,248.175568,10.015267
1.984314,-0.968994,0.543701,-115.801529,248.175568,-29.488550
1.448486,-0.961670,-0.881104,-23.625954,13.442748,0.274809
1.984314,-0.187744,0.961182,5.946565,-69.114502,-92.839691
1.185303,0.419922,0.795898,-9.236641,62.152672,-152.679382
0.287842,0.783691,0.493652,-1.167939,116.167938,-93.969467
0.329102,0.201172,0.302734,15.977099,-36.328243,16.809160
1.400879,-0.011719,0.345459,38.038166,-207.862595,72.282440
1.984314,0.177490,0.391846,57.946564,-223.366409,14.152672
1.984314,0.275391,0.243652,54.557251,-149.236649,-101.664124
1.984314,-0.095459,0.265869,77.770996,-68.267174,-196.106873
1.693359,-0.342041,0.172119,123.435112,-39.152672,-211.076340
1.280029,-0.064941,0.009033,169.809158,-87.389313,-168.763351
1.083008,0.311035,-0.113037,178.175568,-98.473282,-117.679390
1.122314,0.499023,-0.279785,127.007637,-86.480919,-66.687019
1.277588,0.440918,-0.339111,64.748093,-30.427481,-40.541985
1.286133,0.321045,-0.423096,31.786259,24.007633,-33.381680
1.078369,0.290039,-0.497314,31.007633,54.229008,-26.137405
0.863770,0.328613,-0.452393,41.709923,65.061066,-18.236641
0.721680,0.333252,-0.375488,44.534351,54.641220,-17.984734
0.626953,0.261719,-0.318604,36.305344,34.564884,-22.755726
0.578613,0.370117,0.023682,40.748093,1.160305,-35.725189
0.629150,0.398926,0.133301,30.022902,-41.564884,-32.122139
0.013916,-0.120117,0.349854,9.099236,43.977100,-8.297709
1.033447,0.581299,1.046631,50.450382,-37.595421,-9.396947
0.859863,0.710449,-0.465088,21.763359,-73.435112,-4.648855
0.221191,0.797363,1.984314,38.503819,33.832062,12.015267
-0.199219,-0.916504,-0.337891,-63.549618,97.656487,30.480917
1.023682,0.583984,-0.412598,32.969467,-57.335876,6.916030
-0.043945,0.427490,1.984314,43.083969,54.503819,27.183207
-0.034424,0.402344,1.984314,39.351147,42.221375,18.251909
0.539795,0.393799,0.410400,16.534351,-65.885498,-4.412214
0.016357,-0.409912,-1.040283,-51.282444,0.229008,2.190840
0.585205,0.361816,1.419189,30.908398,-7.343512,-16.328245
-0.327637,-0.266602,-0.160156,-16.908398,31.343512,8.503817
0.503662,-0.144531,-0.452148,-26.793894,-6.129771,1.824427
0.536865,0.101318,-0.265381,-7.961832,-30.404581,4.290076
0.468750,0.208008,-0.033691,-7.229008,-23.534351,6.396946
0.368408,0.071777,-0.116943,-21.480917,-4.931298,8.931297
0.197266,-0.140869,-0.292725,-43.557251,26.954199,20.687023
0.010742,-0.122070,-0.089844,-47.610687,65.083969,31.748091
0.035400,0.122559,0.113770,-26.870230,43.900764,26.732824
0.131348,0.066895,-0.320801,-34.839695,6.290076,29.221375
-0.085937,0.133057,-0.252441,-40.793892,33.251907,26.099237
-0.056396,0.427490,-0.184326,-95.183205,-39.954197,4.091603
-0.053955,0.131348,-0.420654,-109.854965,-12.770992,58.992367
0.390869,0.046875,-0.277588,-112.809158,-50.587788,110.519081
0.697998,0.014160,-0.425781,-99.038170,-3.091603,123.122139
1.005859,0.147949,-0.829590,-118.977097,-38.312977,129.167938
1.517822,0.107666,-0.318359,-152.251907,-72.465652,248.175568
1.984314,0.031006,0.588379,-66.587784,-85.465652,248.175568
1.984314,-0.335205,0.359131,-96.877861,248.175568,-50.198475
1.984314,-1.153320,0.524414,-61.816795,190.229004,-2.717557
1.984314,-0.416504,0.331299,-27.442749,-47.824429,-53.312977
1.539551,-0.111084,0.855713,5.007634,-5.412214,-155.045807
0.467529,0.858643,0.922852,11.374045,20.916031,-95.633591
0.324707,1.496338,0.621826,19.366413,16.656488,-3.763359
0.667236,0.159424,0.344971,26.862595,-108.923668,67.984734
1.813721,-0.175293,0.222412,41.603054,-250.137405,78.435112
1.984314,0.097900,0.337646,62.259541,-250.137405,-93.748093
1.984314,-0.252197,0.143311,65.748093,-182.083969,-239.961838
1.984314,-0.390625,-0.183350,73.480919,-101.419846,-250.137405
1.767822,-0.339355,-0.318848,65.396950,-57.885498,-195.160309
1.444336,-0.123291,0.025146,70.847328,31.137405,-69.282440
1.209961,0.291748,-0.279785,80.213737,79.335876,6.610687
1.116699,0.643799,-0.265137,80.679390,66.053436,5.961832
0.899414,0.717529,-0.358154,59.832062,59.343510,-16.870230
0.699463,0.734131,-0.043701,46.847328,57.687023,-21.251909
0.588867,0.639404,0.140137,24.961832,45.343510,-9.946565
0.048828,-0.212402,-0.463135,2.221374,126.770996,4.938931
0.655762,0.482422,1.555908,56.832062,16.526718,-23.320610
0.368652,0.595947,1.028076,56.076336,-56.473282,-32.106869
-0.436768,0.097168,1.984314,62.030533,48.610687,-20.839695
0.756592,-0.664795,-2.000000,-31.435114,34.503819,-21.893129
0.364258,0.883789,1.984314,80.274811,-80.091606,-41.091602
-0.507324,-0.049805,1.984314,44.755726,77.786263,-0.755725
-0.309326,-0.040771,1.966553,29.091602,102.931297,24.274809
0.293457,0.520264,1.865967,42.809162,10.419847,15.183207
0.554443,-0.060791,-1.238770,-22.442749,-26.679390,12.580153
0.014160,0.126465,1.075684,40.541985,79.488548,0.236641
0.342529,-0.365234,-0.722900,-13.946565,29.305344,7.656488
0.635986,0.084473,-0.004395,16.916031,-20.473282,-12.770992
0.292969,0.224365,0.406494,39.534351,-27.366413,-15.137404
0.197754,0.212158,0.481934,33.412212,-19.503817,-11.389313
0.260742,0.216553,0.320313,19.916031,-24.343512,-3.961832
0.381836,0.167725,0.065674,4.045802,-31.541985,2.442748
0.362549,0.001953,-0.104736,-8.389313,-4.725191,8.038168
0.194824,0.028320,0.226074,2.862595,37.297710,6.564886
0.286377,0.259277,0.313965,15.236641,3.160305,-3.877863
0.286377,0.047607,-0.218506,-3.404580,2.282443,3.511450
0.163574,0.094482,0.267090,20.786259,30.251909,1.786260
0.241211,0.130859,-0.119873,-8.832061,-6.442748,14.236641
0.173584,0.369873,-0.010742,-14.633588,-7.190840,-7.839694
0.181885,0.238037,-0.208740,-52.946564,-21.541985,22.893129
0.392822,0.398438,-0.123047,-55.488548,-14.061069,41.381680
0.400146,0.276855,-0.298096,-57.053436,42.740459,44.793892
0.358643,0.003174,-0.354980,-71.022903,45.358780,50.625954
0.358887,-0.143555,-0.375732,-74.053436,30.557251,69.213737
0.497070,-0.104248,-0.161865,-51.312977,17.862595,94.908394
0.772705,0.153076,-0.161133,-88.816795,-31.580153,146.045807
1.543457,0.004395,0.059570,-108.366409,-105.755722,248.175568
1.984314,0.080078,0.860107,-31.091602,-138.396942,248.175568
1.984314,-0.070312,0.422363,-109.175575,248.175568,-38.725189
1.844727,-0.710937,0.549805,-63.343510,193.961838,57.000000
1.984314,-0.340576,-0.181641,-32.282444,-44.290077,-23.396946
1.776123,-0.187500,0.341064,4.648855,-33.770992,-113.916031
0.842773,0.279297,0.849854,9.389313,43.511452,-112.809158
0.583740,0.680420,0.428711,5.740458,-7.305344,-36.969467
1.075684,0.106445,0.387939,33.977100,-122.305344,34.061069
1.907715,-0.000488,0.487549,47.816795,-183.748093,14.908397
1.984314,0.215576,0.345215,56.511452,-173.450378,-99.992363
1.984314,-0.144531,0.247803,65.725189,-122.305344,-183.770996
1.921631,-0.244629,0.031494,86.755722,-82.923668,-205.061066
1.640381,0.020508,0.130127,119.198471,-83.038170,-196.572525
1.547119,0.329590,-0.019043,120.305344,-93.366409,-159.938934
0.727783,0.290527,0.659912,102.022903,6.312977,-63.496181
1.821533,0.729736,-0.739502,64.381676,-76.358780,-25.175573
1.829834,0.640625,-2.000000,15.862596,-65.145035,-22.572519
1.842041,1.230225,-0.770264,47.862595,-27.816793,-22.213741
-0.109131,0.166260,1.984314,0.633588,161.687027,16.412214
1.497803,0.089600,-2.000000,8.389313,-56.374046,-28.450382
1.309326,0.858398,-0.408691,64.809158,-56.625954,-36.770992
1.122803,0.710205,-0.063721,51.740459,-67.404579,-39.038166
1.049316,0.085449,-1.736084,-4.404580,-99.618324,-42.053436
0.385254,-0.348145,-1.190186,-17.572519,48.122139,-23.679390
0.963379,0.465820,1.056152,20.992367,-46.099236,-39.969467
-0.185791,-0.237305,-0.120361,12.595420,54.610687,-12.671756
0.575439,-0.148193,-0.426270,-13.450381,45.694656,7.549618
0.659912,0.115479,-0.217285,-5.816794,20.038168,15.580153
0.601318,0.190430,-0.030762,3.259542,14.641221,16.366413
0.526855,0.112793,-0.082031,-3.000000,18.916031,11.511451
0.367432,-0.050049,-0.099609,-8.297709,37.755726,6.564886
0.130127,-0.103760,0.145752,1.305344,50.854961,2.511450
0.139648,0.098389,0.377930,16.648855,7.603054,-6.122138
0.302002,0.070068,-0.083252,4.267176,-36.015266,-5.458015
0.169678,-0.045410,0.055908,9.007633,3.862595,0.709924
0.358887,0.159668,0.397217,7.335878,-30.496183,-5.671756
0.287354,-0.016846,-0.011963,-9.870229,11.587787,9.145039
0.375244,0.033203,0.309082,3.000000,6.114504,9.519084
0.227539,0.005859,0.123047,2.465649,48.687023,13.923664
0.225342,0.028564,0.043945,-3.030534,28.251909,15.862596
0.187012,0.137939,0.035400,9.480916,26.595419,6.618320
0.113770,0.157715,-0.043945,-1.496183,19.717558,8.274809
0.156006,0.178223,-0.051270,-12.091603,1.229008,12.793893
0.230225,0.144775,-0.048096,-2.572519,-7.480916,16.595419
0.258057,0.173584,-0.208984,-23.832062,-20.755726,-3.183206
0.234863,0.043457,-0.095215,-44.335876,-3.648855,21.770992
0.296631,0.105957,-0.133301,-35.908398,13.083969,56.167938
0.370850,0.253662,-0.240723,-51.496181,19.305344,71.938934
0.423828,0.267334,-0.301758,-71.038170,13.190840,65.297707
0.500732,0.266113,-0.302002,-98.160309,-8.648855,65.969467
0.667725,0.256348,-0.285645,-131.641220,-24.916031,132.778625
1.305908,0.210937,-0.089844,-141.885498,-49.740459,248.175568
1.984314,-0.202148,0.361572,-55.770992,-85.564888,248.175568
1.984314,0.861572,1.838379,-11.053435,100.854965,209.259537
1.984314,-1.104248,0.422119,-74.511452,248.175568,-15.969465
1.984314,-0.867676,0.083008,-27.290077,132.015274,-4.595420
1.984314,-0.693359,-0.113281,-18.908398,-61.404579,-74.832062
1.170654,-0.162109,0.290771,15.900764,-6.007634,-148.488556
0.615967,0.620117,0.344482,11.404580,65.519081,-93.511452
0.718994,0.658936,0.155762,-16.549618,-15.595420,8.458015
1.968018,0.316162,0.299561,11.664123,-196.763351,33.977100
1.891846,-0.386230,-0.976074,2.549618,-114.381676,7.007634
1.984314,-0.632324,0.082764,9.519084,-59.213741,-112.282440
1.984314,-0.567627,-2.000000,15.366412,-136.458008,-206.740463
1.343018,0.445801,1.984314,135.893127,-99.732826,-196.282440
1.573242,-0.879639,-1.661133,96.175575,-38.038166,-174.534348
1.984314,0.470703,-1.915527,145.755722,-156.091599,-174.366409
1.843018,0.739502,-1.412354,127.312981,-162.190842,-111.290077
1.641846,0.352783,-1.899414,38.862595,-62.648853,-41.992367
0.881592,0.270508,0.306152,33.938931,108.641220,3.503817
1.558838,0.643799,-0.141846,14.351145,-8.541985,-6.496183
0.435059,0.392578,0.254883,18.549618,111.374046,6.152672
0.727783,0.051270,-0.705811,-19.267176,85.389313,3.305344
0.869141,0.095703,-0.771240,-10.374045,29.687023,-16.702290
0.771973,0.045898,-0.520752,1.099237,-7.045802,-28.618320
0.677490,-0.052002,-0.430420,1.045802,-27.870230,-27.687023
0.593506,-0.104004,-0.366211,-9.587787,-23.748091,-26.251909
0.443848,-0.095703,-0.049072,-4.816794,6.145038,-24.068703
0.410645,0.135498,0.273926,11.816793,5.343512,-20.610687
0.567871,0.208740,-0.010986,6.129771,-18.427481,-3.236641
0.411621,0.020996,-0.141846,4.083970,28.519083,12.954199
0.428223,0.210205,0.289551,29.000000,31.625954,2.083969
0.381348,0.031250,-0.158447,11.648855,27.465649,8.992367
0.353760,0.129883,0.148926,38.091602,28.221375,-3.832061
0.255371,-0.037354,-0.031982,26.335878,28.740458,-1.114504
0.280029,0.054687,0.067383,32.152672,1.068702,-10.946565
0.201416,0.100098,0.060303,33.625954,5.969466,-11.183207
0.222412,0.102783,0.026611,22.954199,-6.748092,0.770992
0.309814,0.131836,0.081299,19.534351,-3.656489,0.290076
0.284424,0.113037,0.047852,16.099237,9.038168,0.679389
0.248047,0.130859,0.048828,14.122137,12.900764,4.000000
0.220459,0.156738,0.060791,17.320610,8.496183,4.465649
0.218994,0.157471,0.063477,13.427481,1.900763,5.801527
0.242432,0.208496,0.039795,-6.465649,-4.358778,11.671756
0.280762,0.189941,0.018799,-24.603054,-3.946565,12.007633
0.259277,0.075439,-0.038330,-37.137405,0.366412,20.221375
0.266113,-0.004883,-0.060059,-48.106869,-1.633588,23.305344
0.277832,-0.033203,-0.110352,-51.801525,-1.832061,33.190838
0.338379,0.018066,-0.194824,-46.022900,1.206107,47.175571
0.370361,0.035400,-0.271973,-61.954197,8.259542,57.778625
0.434326,0.061523,-0.283691,-71.099236,7.793893,59.557251
0.506836,0.099854,-0.299316,-79.106873,-14.244275,58.374046
0.615723,0.230469,-0.280762,-102.419846,-32.931297,75.648857
0.842773,0.379150,-0.188232,-150.977097,-2.625954,184.778625
1.537842,0.478760,-0.012695,-177.396942,-24.832062,248.175568
1.984314,-0.079346,0.466797,-102.244278,-15.763359,248.175568
1.984314,-0.297119,1.504150,-16.977098,74.282440,248.175568
1.984314,0.614990,1.705078,-64.908394,248.175568,-39.694656
1.984314,0.216553,0.723389,-59.114502,71.725189,-39.900764
1.000488,-0.541504,1.984314,9.770992,-42.122139,-65.938934
1.680420,-1.136230,-2.000000,-52.450382,97.496185,-137.396942
0.250488,0.974121,1.984314,40.564884,28.267176,-150.000000
-0.610596,0.458008,1.984314,34.786259,74.259544,8.908397
0.384033,-0.163574,1.984314,47.061069,-19.305344,93.244278
1.503662,0.094727,1.984314,68.061066,-155.038162,53.893131
1.984314,0.130371,-0.528076,2.633588,-191.969467,-23.877863
1.643066,0.005127,1.047363,60.969467,-22.778625,-69.557251
1.984314,-0.119141,-0.327393,18.366413,-88.480919,-125.763359
1.661621,0.165771,0.464844,83.633591,-139.801529,-162.740463
1.097412,0.225586,0.606689,125.740456,-149.145035,-156.931305
1.027832,0.303467,0.492920,139.305344,-146.572525,-141.320618
1.144531,0.365967,0.306152,135.832062,-143.137405,-132.000000
1.280273,0.402344,0.110107,113.900764,-140.870224,-112.297707
1.459229,0.346191,-0.060303,67.396950,-84.404579,-64.908394
1.431641,0.180420,-0.304199,30.847328,14.557252,-17.305344
1.130127,0.234863,-0.078369,27.007633,85.648857,2.870229
1.075684,0.479980,-0.135742,28.954199,58.442749,-9.335877
0.818604,0.265869,-0.534912,29.122137,72.412216,-18.526718
0.662109,0.331055,-0.138916,37.328243,38.671757,-32.267174
0.569824,0.167236,-0.305908,12.977099,31.251909,-31.587786
0.539551,0.176758,-0.008789,24.167938,4.938931,-38.000000
0.406250,-0.000732,-0.065186,20.351145,22.656488,-32.236641
0.401611,-0.034668,-0.035889,11.717557,4.938931,-25.511450
0.323730,-0.018555,0.094971,21.198473,11.381680,-28.755726
0.216553,-0.030762,0.120605,21.511450,21.229008,-7.709924
0.235840,0.052002,0.107178,21.984734,27.175573,16.572519
0.277344,0.151611,0.098145,14.045801,33.954197,21.213741
0.266113,0.125244,0.142334,8.671756,38.893131,11.893129
0.202393,0.042236,0.104492,7.587786,31.847328,4.083970
0.153809,-0.033203,0.038574,5.854962,18.251909,2.488550
0.141113,-0.069824,-0.049072,4.549618,3.419847,2.267176
0.151123,-0.057373,-0.029541,6.190840,-10.221375,0.290076
0.194336,0.000244,0.039307,12.221375,-16.961832,1.534351
0.280518,0.103271,0.088379,17.534351,-17.610687,4.259542
0.340820,0.183105,0.036133,12.290076,-6.534351,3.595420
0.320313,0.100586,-0.007568,-5.732824,16.007633,5.877862
0.230957,0.001709,-0.131348,-23.961832,29.045801,16.473282
0.175781,-0.027588,-0.103027,-41.297710,24.946566,26.343512
0.210449,0.090820,-0.197754,-29.732824,2.114504,28.778625
0.196533,0.076660,-0.058105,-52.404579,-34.427483,17.190840
0.180908,-0.025635,-0.151367,-48.061069,-7.236641,60.610687
0.229492,0.094971,0.019531,-62.610687,16.786259,75.625954
1.101074,0.139404,-1.167969,-85.030533,-39.343510,55.946564
-0.071533,-0.184326,0.033447,-86.862595,82.923668,71.618324
-0.030029,-0.097168,1.500488,-94.458015,94.801529,81.618324
0.376465,-0.668213,-1.440918,-163.488556,29.358778,124.236641
1.914307,1.192871,-0.446533,-117.282440,-112.778625,207.076340
1.167725,-1.207031,1.458740,-110.221375,60.244274,248.175568
1.984314,-0.510498,-1.816406,-55.656490,-66.847328,248.175568
1.984314,0.154053,-1.444580,-101.007637,248.175568,-52.312977
1.984314,-0.705811,-0.999512,-104.564888,235.419846,-26.977098
1.198730,-0.448730,1.211670,-11.137404,104.061066,-50.732826
1.400879,-0.190918,-0.673096,-23.694656,-93.190842,-123.068703
0.501465,0.439697,1.916016,54.885498,66.534348,-92.992363
0.326416,0.619141,0.164795,-6.366412,21.610687,-0.618321
1.436035,0.274902,-0.214600,-9.053435,-104.763359,47.442749
1.984314,0.070312,-0.146729,4.236641,-157.664124,29.328245
1.984314,0.100098,-0.124756,11.305344,-143.175568,-43.404579
1.984314,0.002686,-0.039307,20.763359,-112.893127,-125.091606
1.757813,-0.211426,0.269287,61.442749,-97.122139,-154.152664
1.614258,-0.033203,0.228516,92.404579,-137.801529,-161.427475
1.617920,0.115967,-0.244873,105.847328,-153.236649,-154.488556
1.329102,0.300293,0.029297,131.557251,-81.908394,-128.763351
1.215332,0.444336,-0.208496,99.511452,-37.274811,-87.160309
1.003906,0.141113,-0.583740,41.396946,44.335876,-26.610687
0.998779,0.174561,-0.414062,28.526718,42.290077,-2.725191
0.845215,0.163574,-0.436035,28.519083,61.106869,-0.351145
0.831299,0.352295,-0.459229,28.503817,12.877863,-14.343512
0.744385,0.429687,-0.463867,30.221375,0.435115,-29.809160
0.687500,0.234619,-0.483154,11.847328,-8.740458,-28.748091
0.679443,0.046143,-0.360596,9.786260,-11.244275,-32.175571
0.575439,0.012695,-0.265869,13.618320,-1.671756,-34.251907
0.426025,0.047363,-0.165283,10.473283,9.374045,-25.954199
0.377197,0.160645,-0.069336,19.007633,17.305344,4.381680
0.448242,0.302002,-0.025146,10.229008,13.076336,16.000000
0.477051,0.237549,0.086182,2.580153,4.030534,3.725191
0.477783,0.085205,0.203857,6.748092,-8.038168,-1.893130
0.519043,0.034180,0.314453,15.290076,-9.969465,-2.732824
0.549072,0.012451,0.384521,20.641222,-0.900763,-3.900763
0.490234,-0.045898,0.466797,9.923664,23.916031,-4.770992
0.381592,-0.075928,0.450439,-0.954198,43.526718,2.106870
0.296875,-0.023193,0.259766,-7.503817,39.183205,7.496183
0.295898,0.035400,0.340820,-6.633588,22.977098,6.129771
0.314697,0.044922,0.389648,-6.633588,8.839695,0.053435
0.340088,0.089600,0.362305,-6.038168,3.335878,-3.931298
0.319336,0.151611,0.365723,-5.007634,9.725191,-7.801527
0.430908,0.106201,0.122070,-18.251909,-12.404580,-7.007634
0.534668,0.018066,-0.391602,-41.091602,4.847328,-0.572519
0.239258,0.410156,0.942139,-7.885496,-14.877863,-1.709924
0.505615,-0.144043,-1.938232,-80.702293,-16.549618,12.503817
0.582764,-0.333740,-2.000000,-89.045799,39.908398,14.755725
1.160400,0.461914,-2.000000,-70.381676,-84.175575,5.656488
-0.606201,0.354980,1.984314,-4.740458,29.137405,34.198475
0.654541,-0.320801,-2.000000,-101.809158,32.167938,28.419847
0.855957,0.631348,-1.531006,-80.977097,-92.870232,19.022902
0.703369,0.595459,-1.142578,-88.809158,-100.404579,24.664122
0.705811,0.098633,-2.000000,-127.175575,-37.290077,69.404579
0.222656,-0.125977,-0.310303,-82.954201,70.786263,138.114502
1.210938,0.387451,-0.848633,-156.152664,-64.114502,214.488556
0.923584,0.031494,0.099121,-148.816788,58.076336,248.175568
1.984314,-0.105225,-0.456543,-111.748093,24.412214,248.175568
1.984314,0.645020,1.111328,-60.198475,114.725189,178.007629
1.984314,-0.853271,0.161621,-93.229004,248.175568,-44.404579
1.984314,-0.754639,0.466553,-37.229008,76.885498,26.129770
1.984314,-0.636963,0.814453,-41.091602,39.396946,-71.007637
0.732422,-0.226074,0.176025,-16.610687,50.473282,-97.167938
0.308838,0.437500,0.417480,22.916031,-19.694656,-40.480915
0.938721,0.586182,0.398193,18.244274,-92.977097,20.885496
1.488770,0.092285,0.340576,13.595420,-71.480919,31.702290
1.945801,-0.049805,0.511475,32.946564,-129.770996,7.603054
1.984314,-0.208496,0.269531,18.526718,-127.946564,-32.396946
1.984314,-0.043945,0.259033,51.946564,-157.572525,-80.709923
1.966064,-0.065918,0.227539,30.564886,-75.786263,-129.183212
1.775635,-0.180420,-0.170654,28.625954,-38.725189,-181.045807
1.320801,-0.232666,-0.148682,60.854961,-17.259542,-212.427475
0.884033,-0.119385,-0.220703,87.030533,-22.839695,-174.076340
0.794434,0.400391,-0.229980,112.259544,-65.427483,-118.290077
0.888184,0.884766,-0.174316,140.748093,-92.740456,-100.404579
0.952881,0.928467,-0.193604,107.419846,-80.419846,-90.045799
0.969971,0.611816,-0.135986,34.801525,-5.595420,-58.923664
0.862305,0.139893,-0.131104,-17.671755,62.000000,-20.717558
0.690430,-0.142578,-0.000488,-11.282443,101.503815,-3.488550
0.457031,-0.297363,0.023437,23.145039,110.389313,-12.022901
0.223389,-0.378418,-0.171143,29.106871,80.038170,-20.282442
0.118408,-0.466797,-0.102783,-4.389313,33.480915,-7.381680
0.176758,-0.425293,0.019775,-15.557252,9.694656,-1.473282
0.166504,-0.425537,-0.177734,-25.893129,-0.244275,2.900763
0.165527,-0.357910,0.290039,-2.229008,16.259542,9.526717
0.073730,-0.179932,0.334961,27.679390,39.244274,15.389313
0.014893,-0.052734,0.345459,44.770992,48.992367,21.312977
-0.020020,0.021729,0.233887,54.687023,39.213741,21.076336
0.033936,0.059570,0.132080,47.580154,-3.580153,15.297709
0.039795,-0.076416,-0.098389,20.458015,-23.984734,20.610687
0.103027,-0.041016,0.080322,26.740458,-21.786259,24.030535
0.978027,0.456299,-0.759033,-20.328245,-139.122131,-9.053435
-0.013428,0.194824,0.125977,-44.870228,29.832062,51.664124
0.131592,0.255127,1.420166,-73.412216,110.832062,92.297707
0.500244,-0.279541,-1.739502,-144.847336,80.809158,83.328247
1.232178,1.246094,-0.817871,-61.229008,18.465649,66.473282
-0.341553,-0.144775,0.686035,-107.358780,158.648849,88.183205
0.822021,0.045166,-2.000000,-105.725189,-30.740458,56.740459
1.116211,0.239502,-2.000000,-122.656487,-94.053436,90.961830
1.046387,-0.391602,-1.141602,-132.450378,-18.595419,175.053436
1.268555,-0.279785,1.912598,-39.366413,68.595421,212.847336
1.984314,-0.547119,-0.615479,-53.091602,-25.648855,158.198471
1.936035,-0.563721,1.395508,16.450382,80.839691,146.000000
1.984314,-0.462158,0.153809,-42.717556,101.908394,112.610687
1.984314,-0.406250,-0.483643,-68.786263,197.580154,-46.442749
1.885742,-0.224854,-0.298340,-42.297710,137.824432,-77.328247
1.433838,0.124268,-0.310303,-31.870230,4.748092,-45.114502
1.552979,0.322510,0.307617,-27.648855,-20.595419,-24.374046
1.348877,0.295166,0.789795,-13.748092,7.717557,-12.717557
1.247070,0.283203,0.922363,25.061069,-56.511452,2.984733
1.541992,0.009521,0.460937,38.442749,-129.282440,-1.106870
1.598633,-0.125244,0.334717,32.221375,-115.969467,-21.900763
1.736572,-0.019287,0.374512,53.083969,-151.007629,-55.778625
1.687988,-0.132324,0.071289,25.778625,-100.969467,-98.793892
1.562500,-0.009521,0.128906,55.190838,-127.908394,-126.274811
1.494873,0.245605,-0.016113,49.358780,-83.702293,-136.022903
1.484131,0.333252,-0.066406,50.648853,-79.580154,-158.496185
1.301025,0.106201,-0.137695,85.870232,-72.160309,-127.343513
1.313965,0.050293,-0.185303,76.099236,-59.320610,-69.977097
1.388672,0.129639,-0.166748,51.122139,-8.137404,-43.015266
1.246826,0.233154,-0.344971,43.068703,30.328245,-37.938931
1.016357,0.247070,-0.517822,38.450382,42.526718,-34.083969
0.799561,0.246826,-0.572754,30.938931,48.450382,-37.641220
0.586670,0.198730,-0.505859,21.030535,44.305344,-41.725189
0.433838,0.149658,-0.363037,12.801527,33.320610,-35.236641
0.362549,0.126709,-0.321777,5.557252,16.473282,-26.305344
0.389404,0.044434,-0.241943,-3.022901,-2.687023,-12.809160
0.508545,0.000488,-0.152832,-5.351145,-13.419847,-3.633588
0.639893,-0.022461,0.035645,-6.687023,-2.824427,2.564885
0.663818,-0.027588,0.130615,-5.458015,17.702290,3.282443
0.589111,-0.063721,0.184570,-1.587786,35.061069,2.748092
0.471191,-0.053467,0.153320,-3.145038,39.267174,1.916031
0.377686,-0.019775,0.060547,-7.007634,26.961832,0.854962
0.351318,0.022949,0.058594,-10.167939,7.305344,-1.931298
0.373291,0.043701,0.117188,-4.190840,-8.900764,-11.534351
0.315186,-0.119141,-0.105225,-14.847328,-1.419847,-7.969466
0.239502,-0.133301,0.027832,-8.549619,33.961834,-10.145039
0.977295,0.111084,-0.500977,-21.206106,-49.458015,-21.473282
-0.210449,-0.358887,-0.068604,-19.251909,77.045799,7.809160
-0.006836,-0.333008,1.709229,1.496183,108.396950,19.083969
0.272461,-0.800781,-1.054199,-41.809162,91.419846,19.984734
1.411621,0.807129,-0.963135,9.709924,-97.137405,-16.847328
-0.427979,-0.239258,1.984314,8.389313,108.396950,20.931297
0.321289,-0.648193,-1.263428,-39.320610,83.099236,13.435115
0.402588,-0.532227,-1.155029,-44.809162,64.221375,7.106870
0.121094,-0.160889,1.032227,-7.763359,94.648857,13.259542
0.868164,0.368652,0.516846,-7.900764,-59.832062,3.748092
0.071777,-0.292236,-0.750488,-47.305344,48.488548,18.916031
1.232910,0.234863,-0.193848,-34.015266,-36.557251,0.435115
0.440430,0.418701,0.335449,-1.374046,-18.709923,1.870229
0.225586,0.321533,0.429687,-12.534351,18.083969,5.083970
0.250244,0.195312,0.300781,-12.847328,33.213741,22.511450
0.359619,0.172363,0.203613,-23.549618,28.770992,42.900764
0.478516,0.226807,0.130371,-52.244274,18.755726,68.091606
0.708496,0.275879,-0.188965,-105.969467,27.977098,139.900757
0.974365,0.143066,-0.185059,-151.854965,76.862595,195.458008
1.051025,0.086670,0.340820,-120.122139,93.702293,201.099243
1.519043,0.167969,0.191650,-71.419846,18.351145,186.198471
1.973145,-0.333252,0.147217,-48.824429,10.000000,211.580154
1.984314,-0.102783,0.461182,6.145038,-56.076336,183.877869
1.984314,-0.193115,-0.073486,-44.206108,248.175568,-55.832062
1.586182,-0.216309,0.176758,-5.030534,78.832062,-35.282444
1.623291,0.236572,0.377441,4.847328,-36.832062,-24.488550
1.609131,0.369385,0.510986,14.702291,-43.435116,-44.679390
1.345703,0.265381,0.597168,12.992367,-28.358778,-49.007633
1.384277,0.037354,0.275146,17.839695,-66.396950,-37.091602
1.628662,-0.149902,0.232422,31.412214,-100.091606,-50.312977
1.782959,-0.300049,0.143311,32.099236,-105.824425,-84.183205
1.805908,-0.377686,0.070557,36.160305,-103.000000,-118.320610
1.706543,-0.295898,0.076660,52.473282,-84.351143,-153.679382
1.548096,-0.146973,0.086426,73.450378,-84.816795,-171.938934
1.377197,0.141602,0.133545,101.259544,-96.480919,-180.633591
1.159180,0.368652,0.152100,118.213737,-98.816795,-184.076340
0.939453,0.429687,0.028564,115.671753,-104.473282,-146.137405
0.865723,0.452881,-0.008301,81.458015,-56.015266,-71.725189
0.884521,0.466797,-0.085693,37.435116,27.977098,-14.793893
0.833252,0.376465,-0.158691,23.534351,68.320610,1.793893
0.679932,0.207031,-0.140381,30.992367,81.404579,-8.458015
0.475830,0.046631,-0.185059,36.274811,76.503815,-12.801527
0.361328,0.046143,-0.251953,37.549618,47.977100,-10.587787
0.339844,0.116455,-0.397949,29.862595,4.145038,-16.335878
0.364746,0.292725,0.013672,34.206108,-18.526718,-30.717558
0.484375,0.387451,0.258545,23.167938,-50.824429,-30.694656
0.116699,-0.320557,-0.462891,-6.709924,42.381680,-7.671756
0.468506,0.466797,1.983887,42.221375,-13.687023,-2.717557
0.248291,0.684082,1.611816,36.183205,-55.687023,7.977099
-0.524658,0.073975,1.984314,42.664124,60.916031,14.656488
0.828857,-0.487061,-2.000000,-61.076336,91.152672,17.091602
0.315918,0.802246,1.962646,30.595419,-86.717560,-11.274809
-0.450684,-0.018066,1.984314,39.641220,14.633588,13.404580
-0.175781,0.068359,1.984314,37.389313,6.274809,11.893129
0.562012,0.532959,1.398193,17.068703,-87.854965,-3.229008
0.587646,-0.072510,-1.482910,-53.961834,-0.396947,8.137404
0.478516,0.389648,1.338135,9.297709,19.854961,5.847328
0.211670,-0.256592,-0.593018,-43.183205,49.374046,30.145039
0.856445,-0.020508,-0.400635,-50.160305,1.015267,13.167939
0.685303,0.134277,0.004150,-35.076336,-28.786259,10.618320
0.599854,0.211914,0.058350,-31.183207,-42.450382,10.091603
0.673340,0.216309,-0.028320,-42.534351,-56.183205,9.679389
0.781250,0.122803,-0.138672,-51.061069,-34.587788,21.229008
0.755127,0.054443,-0.137207,-48.923664,15.549619,32.969467
0.666748,0.197021,0.197510,-30.954199,29.671755,35.061069
0.767090,0.234375,-0.018066,-54.351147,22.877863,70.824425
0.773682,0.095703,-0.266113,-100.229004,104.114502,142.435120
0.847900,0.264160,0.114014,-103.229004,102.984734,160.358780
0.890381,0.204834,-0.280029,-114.381676,120.206108,150.511444
0.890625,0.394775,-0.092041,-73.816795,78.450378,157.297714
1.107666,0.239502,-0.181885,-83.083969,86.778625,172.725189
1.654541,-0.147461,-0.070801,-55.541985,38.183205,187.847336
1.984314,0.248291,0.783691,-53.099236,122.549622,117.778625
1.984314,-0.507080,-0.100586,-77.702293,248.175568,-22.908398
1.631836,-0.461914,0.120361,-47.984734,103.503815,7.946565
1.984314,-0.348389,0.785156,-34.335876,75.908394,-48.541985
0.723877,-0.132568,0.649170,-5.450382,48.862595,-49.458015
0.819580,0.310303,0.719482,-2.167939,-7.290076,-4.801527
1.283203,0.169434,0.779541,7.122138,-24.328245,5.687023
1.273438,0.022949,0.729248,23.320610,-61.587788,16.022902
1.526855,0.004639,0.626709,29.541985,-98.160309,19.145039
1.669189,-0.070557,0.494629,23.183207,-118.000000,-5.389313
1.594482,-0.083252,0.368652,23.221375,-125.671753,-33.251907
1.573730,-0.045166,0.245850,23.480917,-114.954201,-70.969467
1.529053,0.029297,0.178223,34.816795,-128.595413,-112.045799
1.502441,0.095459,0.102295,51.045803,-166.931305,-150.091599
1.501465,0.057861,0.005127,69.671753,-200.656494,-170.618317
1.513672,-0.153076,-0.102783,76.206108,-184.038162,-182.335876
1.465332,-0.182129,-0.165039,82.595421,-144.664124,-185.206100
1.296143,-0.100586,-0.170654,80.335876,-109.557251,-153.519089
1.279053,0.353271,-0.062256,113.297707,-83.969467,-87.557251
1.429688,0.773682,-0.119141,118.106873,-51.305344,-40.618320
0.658203,0.643555,0.422607,88.167938,82.458015,-6.198473
1.507813,1.051270,-0.010010,40.702290,-13.793893,-17.480917
1.405029,0.922363,-1.370117,-0.671756,-25.343512,-26.625954
0.656006,0.848389,1.796387,34.259541,62.030533,-13.603053
-0.237305,-1.027832,-0.249512,-38.061069,158.511444,3.015267
1.076416,0.482910,-1.023193,67.908394,-68.221375,-34.763359
0.020264,0.638916,1.984314,97.816795,-9.931297,-12.442748
0.154785,0.730713,1.984314,92.343513,-34.709923,-11.854961
0.922119,0.813232,0.390869,51.312977,-118.618324,-22.106871
0.567871,-0.077637,-1.196777,-44.664124,-4.381680,-3.259542
0.810059,0.448486,1.418457,7.679389,42.328243,1.511450
-0.095703,-0.377441,-0.260010,-37.511452,98.465652,32.709923
0.606934,-0.191650,-0.329590,-30.251909,53.000000,19.717558
0.450195,0.073242,-0.162354,-0.557252,9.251908,14.030535
0.347656,0.240967,-0.040283,6.648855,-21.076336,8.297709
0.379395,0.237305,0.000000,-1.122137,-43.396946,-2.687023
0.372070,0.005859,-0.055908,-24.732824,-34.847328,-6.335878
0.201904,-0.216309,-0.034912,-35.580154,12.786260,0.801527
0.113037,-0.056641,0.273193,-17.221375,34.297710,8.854961
0.316895,0.079102,0.112549,-11.847328,-5.038168,11.358779
0.205322,-0.122070,-0.186279,-22.473282,30.923664,19.969465
0.187012,0.118408,0.340332,-2.167939,32.274811,10.832061
0.161133,0.027588,-0.154053,-27.992367,18.412214,14.832061
0.173096,0.142578,0.114502,-13.679389,6.839694,9.152672
0.166992,-0.036865,-0.080566,-35.206108,4.000000,18.152672
0.297363,0.031738,-0.078125,-39.419846,-25.259542,23.106871
0.333496,0.176270,-0.214355,-53.709923,-27.671755,6.748092
0.303467,0.038086,-0.071289,-72.435112,-34.465649,27.229008
0.498779,0.109375,-0.111084,-58.557251,-25.694656,74.267174
0.709229,0.184570,-0.215820,-72.793892,-3.564885,82.404579
0.710449,0.075684,-0.256836,-104.938934,20.732824,71.916031
0.637695,-0.027588,-0.298828,-146.801529,54.297710,166.648849
1.160645,0.002441,-0.395020,-188.625961,52.221375,248.175568
1.984314,0.220215,-0.216064,-121.564888,-9.534351,248.175568
1.984314,0.145508,0.494873,-26.740458,-41.091602,248.175568
1.984314,-0.873535,-0.769287,-92.099236,248.175568,-96.129768
1.555176,-1.361084,0.644531,-5.809160,119.870232,-55.274811
1.851807,-0.328613,0.822754,15.183207,-94.435112,-54.175571
1.205566,0.314453,0.585449,10.312977,-22.190840,-112.679390
0.603516,0.702881,0.685303,-7.725191,82.625954,-59.244274
0.509521,0.488037,0.343262,1.732824,-21.801527,2.687023
1.276855,0.005371,0.170410,21.473282,-143.343506,68.977097
1.984314,-0.026611,0.260498,33.656490,-200.167938,2.412214
1.984314,0.103516,0.185059,30.748091,-177.274811,-131.977097
1.984314,-0.191895,0.282227,47.511452,-136.916031,-214.374039
1.885498,-0.463379,0.114502,45.603054,-102.656487,-232.656494
0.892334,-0.859619,0.409912,108.900764,4.748092,-197.435120
1.587646,0.132324,0.471680,173.801529,-129.389313,-168.572525
1.469971,0.965088,-1.059082,197.458008,-160.671753,-109.000000
1.013428,1.678223,1.943848,209.229004,-128.732819,-65.213737
0.879150,0.147217,-0.902832,73.099236,83.717560,-19.580153
1.930176,1.411621,-0.608398,26.267176,-75.717560,-50.908398
0.804199,0.893066,1.984314,52.473282,41.091602,-21.809160
0.602051,0.519531,1.950439,56.251907,65.488548,-17.519083
1.031006,0.451904,0.382080,42.167938,-13.564885,-34.465649
0.549072,-0.422607,-1.600586,-0.809160,60.786259,-28.160305
0.683594,0.296143,1.140137,59.267174,3.083969,-48.114502
0.068848,-0.430908,-0.620117,-0.931298,11.877863,-30.656488
0.898682,-0.148193,-0.453125,-7.137404,-37.030533,-23.725191
0.836182,0.150635,-0.096191,-4.923664,-44.404579,-7.221374
0.728271,0.256104,0.101074,-1.801527,-24.526718,-0.022901
0.670898,0.241211,0.061035,0.099237,-5.931298,4.442748
0.587891,0.069824,-0.043945,-5.480916,18.671755,5.824428
0.350586,-0.111328,0.002197,-2.396947,59.206108,7.374046
0.128418,0.046143,0.401123,17.709923,68.816795,0.770992
0.227051,0.265137,0.346191,17.175573,4.114504,-10.007633
0.175537,0.066650,-0.070801,-8.061069,-1.396947,-5.091603
0.147461,0.160400,0.368652,3.786260,-5.099236,-12.694656
0.272461,0.028564,-0.036621,-24.519083,-37.496181,-7.473282
0.288574,0.072266,0.225342,7.389313,-13.114504,-11.938931
0.288818,-0.083740,0.087402,-17.396946,-0.404580,6.488550
0.350586,-0.001221,0.267578,-4.656488,17.847328,11.641221
0.230225,-0.005127,0.133789,-16.526718,43.679390,15.282443
0.189453,-0.025391,0.055664,-18.770992,30.396946,19.625954
0.208984,0.067139,0.060547,-15.190840,10.916031,12.305344
0.214111,0.125977,-0.040527,-15.114504,-1.580153,5.854962
0.256592,0.096924,-0.081543,-16.328245,-14.946565,5.916030
0.307373,0.057373,-0.114258,-16.854961,-14.358779,7.473282
0.333984,0.030762,-0.060547,-15.580153,-8.656488,11.732824
0.321045,0.162842,-0.078369,-28.854961,-11.015267,16.839695
0.363770,0.259277,-0.129883,-41.358780,-31.038168,12.267176
0.325684,0.103271,-0.093994,-66.969467,-36.984734,27.786259
0.490234,0.093750,-0.186035,-66.312981,-12.984733,85.839691
0.702393,0.169189,-0.242187,-84.900764,10.259542,100.908394
0.718506,0.144043,-0.281738,-114.450378,38.114502,127.190842
0.878418,0.065918,-0.272705,-175.633591,63.679390,248.175568
1.548828,0.089600,-0.212158,-180.893127,27.793894,248.175568
1.984314,-0.002686,0.101563,-68.900764,-38.793892,248.175568
1.984314,0.551758,1.561035,-42.045803,138.328247,201.717560
1.984314,-1.463867,-0.030518,-91.503815,248.175568,-64.236641
1.190186,-1.009766,0.486816,39.114502,53.305344,-53.229008
1.649902,-0.067383,1.755615,54.244274,-73.755722,-46.366413
0.747559,0.169434,-0.208008,-37.664124,47.145039,-97.480919
0.472168,0.693115,1.984314,63.137405,68.160309,-34.213741
0.426514,0.254150,1.984314,60.709923,-73.809158,57.007633
0.883545,-0.453613,1.984314,21.404581,-40.801525,46.564884
1.984314,0.053223,-2.000000,-9.038168,-215.389313,-70.381676
1.476318,0.262939,1.984314,45.351147,-9.519084,-98.412216
1.505371,-0.717529,0.189453,23.320610,20.580153,-194.854965
1.397461,-0.838623,-0.692383,58.007633,-4.106870,-242.000000
0.721191,-0.864502,0.636719,131.473282,7.740458,-201.526718
1.031738,0.067871,0.771729,225.503815,-140.282440,-149.358780
0.907715,0.054443,-1.523193,176.984726,-143.106873,-114.770996
1.552246,1.054932,0.550537,186.862595,-93.053436,-109.351143
0.597412,0.410156,-0.139648,72.610687,10.755725,-50.801525
1.099365,-0.059326,-0.645752,0.129771,63.396946,-15.480916
1.158203,-0.152344,-0.751221,5.694656,74.320610,-7.160306
0.918701,-0.084229,-0.655762,28.435114,74.625954,-18.129770
0.641846,0.047607,-0.406982,46.786259,68.473282,-23.648855
0.467529,0.292480,-0.010498,54.893131,47.244274,-26.358778
0.526855,0.506836,0.194580,52.641220,-10.480916,-38.038166
0.708740,0.477783,0.012451,25.839695,-52.702290,-40.083969
0.587646,0.241699,0.071777,21.809160,-3.320611,-24.839695
0.652100,0.372314,0.519287,24.099237,4.641222,-11.221375
0.613037,0.183594,0.042969,-2.908397,39.022900,6.770992
0.451416,0.127686,0.439697,-1.702290,59.916031,0.793893
0.272949,-0.139648,0.275146,-31.061069,75.458015,12.603053
0.225586,-0.146973,0.330811,-15.717557,49.076336,12.320611
0.143799,-0.123291,0.190918,-5.290076,42.183205,12.648855
0.231689,-0.083252,0.177979,-5.557252,8.580153,9.511451
0.346191,0.010986,0.247314,4.290076,-12.770992,-8.236641
0.376221,0.013428,0.231934,3.519084,-8.160305,-20.458015
0.361572,-0.000977,0.238281,2.312977,-5.832061,-21.091602
0.342041,0.016357,0.240967,0.961832,-4.343512,-20.519083
0.295166,0.012939,0.161133,0.328244,1.740458,-17.015266
0.268311,0.047363,0.107178,-5.801527,8.129771,-7.900764
0.244873,0.071045,0.059326,-16.267176,17.916031,2.496183
0.240967,0.086914,-0.004150,-27.458015,23.312977,9.083969
0.228760,0.027100,-0.032715,-29.366413,22.702290,10.923664
0.251221,-0.021240,-0.066406,-30.000000,21.648855,15.541985
0.271484,-0.064209,-0.095215,-32.717556,23.984734,23.572519
0.289551,-0.077148,-0.120117,-40.534351,20.755726,29.106871
0.311035,-0.086914,-0.104248,-34.053436,8.778625,36.488548
0.349365,0.103516,-0.077637,-51.725189,-12.610687,17.702290
0.407715,0.170410,-0.048828,-43.366413,-7.916030,36.122139
0.552246,0.257568,-0.203369,-43.251907,3.480916,67.633591
0.754395,0.511230,-0.199219,-93.603050,-7.091603,111.007637
1.086670,0.621338,-0.366699,-159.885498,38.412212,217.396942
0.647461,0.295410,0.367920,-173.969467,159.274811,248.175568
1.984314,1.050293,0.589111,-128.732819,52.396946,248.175568
1.984314,0.678955,-0.195557,-69.442749,-34.305344,248.175568
1.984314,0.548340,1.984314,9.900764,-19.709923,248.175568
1.984314,-2.000000,-1.052979,-115.015266,248.175568,-56.557251
1.876465,-0.524414,0.767334,-1.305344,19.198473,-86.572517
0.304688,-0.663818,1.984314,1.152672,75.603050,-110.038170
-0.379395,-0.230957,1.984314,48.404579,160.770996,-110.328247
-0.260254,0.706787,1.843262,38.732826,-35.419846,0.167939
1.236328,0.372803,-1.017578,-36.992367,-164.381683,64.595421
1.913330,0.131836,1.909180,66.129768,-106.709923,56.641220
1.984314,-0.248535,-0.291260,-4.595420,-97.328247,-16.961832
1.984314,0.051758,0.210449,14.610687,-91.557251,-108.335876
1.841797,0.118896,0.298584,54.641220,-95.206108,-168.267181
1.402344,-0.072754,0.397949,82.816795,-124.419846,-180.366409
1.304932,-0.175537,0.263184,99.770996,-177.931305,-157.122131
1.500000,-0.054199,0.034668,117.190842,-198.022903,-142.091599
1.545410,-0.046387,-0.256104,140.717560,-149.740463,-149.931305
1.309082,0.129639,-0.199951,166.427475,-88.030533,-155.320618
1.221680,0.492676,-0.321533,150.427475,-90.557251,-138.503815
1.219482,0.392578,-0.578369,87.625954,-64.129768,-75.267174
1.092529,0.396240,-0.212402,42.549618,-0.175573,-19.862595
1.288574,0.400879,-0.231689,-4.954198,2.374046,-5.534351
1.024658,0.333252,-0.132568,11.992367,37.435116,-18.389313
0.883789,0.140381,-0.135254,0.793893,18.351145,-20.610687
0.718750,0.160889,0.095215,21.160305,18.305344,-26.671755
0.540283,0.127197,0.023193,19.343512,19.267176,-21.893129
0.498291,0.182861,0.044434,2.816794,-4.778626,-13.297709
0.510742,0.224609,0.198730,6.587786,-3.977099,0.267176
0.556885,0.207520,0.162109,-2.160305,2.473282,8.160305
0.570557,0.134521,0.153809,-13.885496,2.435115,6.687023
0.549072,0.046631,0.303955,-3.068702,14.175572,10.274809
0.508789,0.038574,0.389404,3.954198,26.541985,10.259542
0.420654,0.045654,0.406494,3.229008,34.053436,5.038168
0.292480,0.010498,0.318848,-8.824428,37.656490,1.152672
0.174072,-0.054443,0.091797,-24.679390,25.648855,3.839695
0.168457,-0.053223,-0.025391,-24.862595,-7.015267,4.091603
0.247559,0.002930,0.031006,-9.267176,-43.045803,-11.885496
0.336182,0.065918,0.098633,-3.274809,-60.442749,-19.549618
0.429687,0.130127,0.219727,-0.725191,-51.137405,-20.061069
0.436523,0.083496,0.300781,-6.412214,-21.816793,-12.503817
0.348633,-0.046631,0.279541,-18.290077,14.473283,4.725191
0.233154,-0.082764,0.198730,-21.175573,34.946564,21.984734
0.150391,-0.048584,0.084717,-22.786259,41.610687,31.190840
0.123779,0.141113,0.338135,-5.038168,37.946564,22.412214
0.157715,0.234863,0.294189,-3.709924,6.916030,22.977098
-0.470459,-0.207520,0.257080,-26.473282,80.603050,36.809162
0.607666,0.486816,0.966064,20.885496,-2.038168,13.992367
0.469482,0.655762,-0.470215,12.351145,-76.213737,14.198473
-0.137207,0.771240,1.984314,3.877863,48.320610,31.824427
1.189209,0.260986,-2.000000,-87.358780,-20.503817,25.000000
-0.381836,0.630127,1.984314,-16.206106,-50.938931,30.251909
-0.364014,-0.598145,0.178467,-58.137405,80.648857,35.648853
-0.041016,-0.711670,-0.458252,-40.267174,109.984734,102.946564
0.106934,-0.096436,1.158203,-31.816793,65.190842,144.335876
1.048096,0.598145,0.043457,-141.473282,-41.305344,243.267181
1.342041,0.010986,-0.913330,-205.969467,101.893127,248.175568
1.984314,0.173828,0.132568,-147.366409,-59.175571,248.175568
1.984314,0.380615,1.984314,-7.427481,203.312973,170.305344
1.984314,-1.726074,0.682861,-90.839691,248.175568,-69.450378
1.721680,-1.267822,-0.350342,8.221375,11.366412,-59.061069
1.984314,-0.116943,1.019287,3.816794,-3.580153,-114.000000
0.914795,0.732422,1.053955,11.954199,51.587788,-119.923668
0.512695,1.459961,0.641113,35.297710,28.946566,-64.564888
0.833496,0.732910,0.444336,31.122137,-121.396950,17.427481
1.780273,0.229004,0.454102,32.061069,-204.702286,62.106869
1.984314,0.364746,0.352295,87.717560,-250.137405,-74.496185
1.984314,-0.522217,0.094971,53.633587,-196.587784,-238.160309
1.984314,-1.455566,0.564697,123.969467,-136.511444,-250.137405
1.479248,-1.002686,-0.822266,160.923660,-153.648849,-240.923660
1.434082,0.238525,-0.110107,203.328247,-135.717560,-194.190842
1.161621,0.598145,-0.447266,147.687027,-57.519085,-103.977097
1.293213,0.474121,-0.361328,29.419847,16.450382,-22.717558
1.220215,0.368896,-0.344727,19.916031,94.496185,-10.541985
0.906006,0.417969,-0.313477,38.916031,99.526718,-19.496183
0.705322,0.500977,-0.281982,43.801525,86.534348,-16.106871
0.644287,0.442383,-0.244629,38.007633,54.290077,-15.809160
0.617920,0.308838,-0.257813,28.748091,22.977098,-22.770992
0.592285,0.205811,-0.217041,20.328245,2.374046,-32.419846
0.546387,0.152588,-0.125977,10.282443,-10.839695,-48.236641
0.433350,0.035400,-0.040039,2.778626,-8.503817,-45.923664
0.345947,-0.038818,-0.007324,-4.167939,9.427481,-21.435114
0.292725,-0.094971,-0.008057,-7.847328,33.557251,8.511451
0.277100,-0.096680,0.033691,-7.244275,53.748093,26.450382
0.245850,-0.027588,0.096191,-4.251908,58.702290,23.755726
0.193115,0.056641,0.116211,-2.496183,43.206108,11.465649
0.164551,0.074219,0.120605,-2.267176,13.603053,-0.916031
0.190674,-0.009521,0.209717,3.007634,-10.221375,-10.335877
0.250977,-0.081787,0.256104,13.267176,-22.312977,-13.175572
0.363281,-0.041504,0.257324,20.717558,-24.977098,-15.083969
0.222412,-0.150635,0.163818,9.916031,23.236641,-4.503817
0.058838,-0.166748,0.352783,0.847328,56.916031,2.053435
0.781006,-0.039551,-0.859863,-37.312977,-21.923664,-3.030534
-0.315918,-0.290527,0.549561,-22.832062,109.282440,14.694656
-0.318359,-0.253418,1.798340,-19.000000,120.465652,26.274809
0.059326,-0.730469,-1.174316,-69.702293,88.167938,24.259542
1.070313,0.844727,-0.688721,1.038168,-81.748093,-4.274809
-0.648926,-0.437500,1.776123,-29.435114,135.320618,38.122139
0.327881,-0.570557,-1.833252,-61.290077,67.099236,26.290077
0.385254,-0.344482,-1.799805,-54.519085,38.274811,16.473282
-0.112061,-0.207520,0.252930,-25.122137,112.381676,26.030535
0.346436,0.552490,1.350342,8.541985,16.694656,16.534351
-0.082520,-0.264648,-1.230469,-85.786263,29.740458,25.160305
0.680908,0.473633,0.518311,-58.526718,1.175573,11.053435
-0.241211,0.220215,0.380371,-63.664124,55.465649,34.458015
-0.062744,0.022949,-0.013672,-72.076332,72.015266,47.511452
0.175049,0.135742,-0.395996,-91.099236,49.687023,78.450378
0.375244,0.198242,-0.304443,-162.938934,43.954197,191.259537
1.013184,-0.001221,0.018799,-221.106873,47.587788,248.175568
1.984314,0.088623,0.188232,-182.557251,12.259542,248.175568
1.984314,-0.797852,0.378906,-55.793892,-10.412213,248.175568
1.984314,-0.528809,1.356201,-84.969467,248.175568,-49.923664
1.984314,-1.740967,0.457275,-62.206108,215.152664,-52.290077
1.984314,-0.863770,-0.435059,6.290076,-122.015266,-75.610687
1.317627,-0.030762,0.770264,17.213741,40.893131,-185.129776
0.273193,1.186768,0.925537,22.412214,125.679390,-91.244278
0.060547,1.752197,0.660400,4.335878,-22.351145,6.511450
0.962158,0.291016,0.506104,0.541985,-121.900764,107.389313
1.984314,-0.356201,0.486328,31.564886,-202.419846,56.198475
1.984314,-0.184082,0.072754,30.221375,-193.396942,-71.061066
1.984314,-0.454590,0.224609,41.908398,-135.007629,-182.824432
1.984314,-0.692627,0.343994,73.954201,-95.381676,-228.938934
1.714844,-0.548828,0.117432,114.458015,-110.442749,-218.389313
1.451416,-0.291992,-0.128662,147.496185,-118.335876,-204.030533
1.307617,0.038330,-0.331543,189.717560,-118.809158,-183.198471
1.266846,0.539307,-0.286377,200.961838,-157.122131,-130.908401
1.367676,0.882568,-0.111084,139.473282,-112.206108,-83.290077
1.424072,0.835937,-0.169678,51.015266,-23.473282,-43.587788
1.339111,0.592041,-0.218750,-3.931298,42.152672,-4.427481
1.130615,0.355225,-0.197510,-7.641222,83.664124,0.427481
0.844238,0.167236,-0.178955,0.061069,89.274811,-15.748092
0.570312,0.027832,-0.070557,14.709924,65.091606,-32.511452
0.366699,-0.050537,-0.018555,19.832062,25.167938,-42.114502
0.271973,-0.072510,0.072266,27.022902,-6.625954,-33.251907
0.324707,0.015381,0.130371,28.091602,-12.740458,-8.190840
0.432129,0.078857,0.058105,10.061069,-1.160305,8.137404
0.307129,0.149414,0.376709,10.610687,45.687023,20.496183
0.151367,0.289551,0.725586,13.916031,51.068703,21.862595
0.446289,-0.183838,-0.875732,-33.190838,69.458015,14.244275
-0.136963,0.097656,1.940918,42.923664,90.893127,-2.633588
-0.418945,0.142334,1.984314,56.404579,20.786259,-0.190840
-0.614258,-0.668213,1.051514,14.687023,104.435112,5.816794
1.209229,0.250244,-2.000000,-37.175571,-73.633591,-31.763359
-0.566162,0.059082,1.984314,45.480915,-10.038168,-19.030535
-0.380615,-0.730713,0.393311,-10.038168,86.702293,5.740458
-0.179443,-0.520508,0.309326,-3.977099,88.030533,3.832061
0.002441,0.141113,1.861084,34.900764,18.877863,-6.687023
0.622559,0.135986,-0.454834,-15.236641,-71.458015,-8.412213
-0.258301,-0.118408,0.495605,17.900763,70.404579,1.977099
0.631104,-0.127441,-0.605957,-29.702290,-7.969466,9.847328
0.505127,0.217041,0.255615,2.793893,-26.664122,3.412214
0.157715,0.241943,0.524902,6.145038,-6.870229,11.458015
0.076172,0.217529,0.447998,-0.870229,6.351145,16.366413
0.145752,0.232422,0.320557,-3.694656,-4.541985,16.526718
0.278076,0.163574,0.033936,-11.946565,-23.213741,18.534351
0.348877,-0.031250,-0.166992,-31.709923,-9.160305,28.068703
0.231689,-0.070068,0.042725,-26.648855,29.725191,28.648855
0.304443,0.185791,0.208252,-22.061069,-4.206107,23.259542
0.377197,0.064453,-0.418213,-53.946564,-15.664123,24.427481
0.207031,0.033203,0.009033,-52.946564,16.343512,22.862595
0.330322,-0.050781,-0.026855,-74.557251,-9.625955,38.870228
0.357178,0.116699,-0.026855,-60.396946,13.053435,75.717560
0.546631,0.102783,-0.230225,-129.061066,-17.778625,71.839691
0.728760,0.129639,-0.014893,-142.068695,-29.404581,160.595413
1.417969,-0.010498,-0.165283,-189.809158,-6.969466,248.175568
1.984314,-0.208740,-0.253662,-211.320618,-41.702290,248.175568
1.984314,-0.352295,0.474609,-41.870228,-52.053436,248.175568
1.984314,-0.337402,-0.005127,-97.824425,248.175568,-57.801525
1.984314,-0.860352,0.168213,-57.694656,223.076340,-28.221375
1.984314,-0.292480,0.125732,-3.732824,-61.595421,-50.480915
1.769531,0.525635,0.721924,8.198473,-7.503817,-117.351143
0.852539,0.891113,0.896973,-2.015267,98.847328,-105.854965
0.386230,0.827393,0.533936,0.198473,6.221374,-31.893129
1.029785,0.197266,0.304199,21.946566,-136.351151,63.526718
1.984314,-0.142578,0.359375,48.114502,-186.641220,26.229008
1.984314,-0.181641,0.253418,51.580154,-167.152664,-109.404579
1.984314,-0.456543,0.261475,66.954201,-110.648857,-229.984726
1.903564,-0.863525,0.255615,90.740456,-96.984734,-237.488556
1.591309,-0.709961,0.165283,158.053436,-98.740456,-208.351151
1.373535,0.010742,-0.392090,222.305344,-144.625961,-190.557251
1.398193,0.840332,-0.083008,237.679382,-192.450378,-143.916031
1.493164,1.050781,-0.024414,151.587784,-130.603058,-92.000000
1.726074,0.743164,-0.056641,27.595419,-28.206106,-46.625954
1.674561,0.337891,-0.041748,-4.267176,71.091606,-12.725191
0.403809,-0.061523,0.545410,7.938931,202.847336,13.564885
1.002930,0.510010,0.594727,43.045803,78.320610,-17.671755
0.627441,0.732178,-0.402832,57.877861,-4.183206,-29.442749
-0.276367,0.651855,1.984314,68.725189,68.954201,-6.893130
0.283691,-0.600342,-2.000000,-34.213741,-35.335876,-26.206106
0.786621,1.089600,1.336426,73.511452,-95.763359,-47.351147
-0.208252,0.177979,1.984314,23.946566,52.381680,-22.007633
-0.085449,-0.002441,1.974121,14.236641,95.244278,-10.198473
0.408936,0.502930,1.819580,44.709923,51.877861,-3.435115
0.592285,0.044922,-1.289795,-11.106871,-27.847328,5.526718
-0.028076,0.225830,0.842529,15.290076,96.381676,5.862596
0.417236,-0.224121,-0.901367,-28.984734,-3.480916,4.053435
0.620605,0.220215,0.027344,15.870229,-42.961834,-17.030535
0.273193,0.295410,0.451904,36.167938,-30.580153,-18.251909
0.223877,0.276855,0.496094,38.282444,-17.328245,-20.229008
0.272949,0.242432,0.376709,34.664124,-20.465649,-22.641222
0.346436,0.171631,0.168457,25.458015,-37.427483,-18.854961
0.300049,-0.064453,-0.183594,2.022901,-35.221375,-2.175573
0.124756,-0.183838,-0.028320,-9.526717,9.251908,17.297710
0.223145,0.112793,0.355225,2.862595,9.358779,22.671755
0.399414,0.089111,-0.197754,-23.145039,-17.106871,35.305344
0.237793,0.060059,0.109131,-9.557252,39.549618,32.977100
0.340088,0.139648,0.027100,-30.717558,1.763359,32.167938
0.181396,0.100586,-0.012207,-25.038168,35.702290,29.022902
0.243896,0.041260,-0.135986,-44.435116,5.900764,36.229008
0.238770,0.058838,0.012207,-26.488550,6.618320,23.778625
0.161133,-0.063477,-0.087891,-38.832062,12.381680,32.480915
0.264648,0.023437,0.131348,-38.450382,-2.442748,43.259541
0.338867,0.111816,0.112305,-16.778625,-0.038168,33.419846
0.344238,0.155762,-0.079346,-24.992367,9.290076,29.442749
0.321777,0.092041,-0.090332,-53.664124,11.931297,21.893129
0.289307,0.127441,-0.090820,-69.022903,-0.488550,21.496183
0.288086,0.210449,-0.084229,-88.618324,-13.816793,39.282444
0.473389,0.287109,-0.115723,-136.923660,-17.282442,85.297707
0.740479,0.164307,-0.112549,-164.175568,4.221374,179.992371
1.327393,-0.148682,-0.254883,-227.595413,44.801525,248.175568
1.984314,-0.473633,-0.167969,-212.954193,18.427481,248.175568
1.984314,-0.297607,0.710937,-20.893129,-20.984734,248.175568
1.984314,-0.663574,-0.570068,-99.328247,248.175568,-91.000000
1.852295,-1.303711,-0.356934,-65.221375,139.709930,-27.259542
1.984314,-0.518311,0.620117,-9.106871,-28.183207,-79.488548
1.016113,0.037598,0.635986,10.664123,49.190838,-130.587784
0.179443,0.794189,0.854980,5.847328,141.343506,-53.305344
0.030273,1.310547,0.398926,-14.671756,9.343512,-9.320611
0.959717,0.197998,0.696045,21.190840,-126.099236,94.351143
1.984314,-0.220215,0.859863,69.221375,-185.167938,55.122139
1.984314,-0.625977,-0.082520,35.595421,-72.679390,-47.916031
1.984314,0.009521,1.984314,92.648857,-62.587788,-128.816788
1.151123,0.145752,1.984314,109.427483,-89.305344,-168.625961
0.248779,-0.641113,1.984314,141.885498,2.732824,-146.534348
1.984314,0.003174,-2.000000,129.557251,-184.587784,-169.992371
0.438721,0.438477,1.984314,213.038162,-142.129776,-130.007629
1.071289,-0.354980,-0.426025,160.374039,-84.603050,-138.282440
1.358398,-0.129883,-1.114014,118.213737,-98.862595,-131.625961
0.941895,0.032471,0.506104,87.175575,6.061069,-80.114502
1.359375,0.614746,1.252930,64.687019,-15.557252,-41.694656
0.998535,-0.136963,-1.521973,-12.809160,69.000000,-3.229008
1.287354,0.558350,0.575928,47.312977,57.458015,-18.122137
0.142090,0.137451,0.014404,48.625954,98.114502,-11.954199
0.377930,-0.043213,-0.558838,16.557251,65.916031,-13.763359
0.575684,-0.006348,-0.749512,-4.534351,13.534351,-16.267176
0.640137,-0.052246,-0.592041,-11.015267,-5.458015,-24.954199
0.591553,-0.167969,-0.227783,-0.488550,8.984733,-28.687023
0.505127,-0.057373,0.135254,26.992367,30.068703,-21.137405
0.574707,0.197510,0.233154,40.717556,12.022901,-15.541985
0.575928,0.095459,-0.162842,20.519083,4.824428,0.167939
0.348877,0.013428,0.088379,17.893129,54.954197,14.595420
0.461182,0.207275,0.276123,9.022901,6.137404,5.465649
0.353271,0.036621,-0.084717,-4.167939,12.000000,6.236641
0.413086,0.125732,0.318604,18.404581,-16.022902,-10.572519
0.335449,0.002441,0.073730,11.450381,-8.267176,-8.458015
0.448975,0.043701,0.208740,22.267176,-25.175573,-11.091603
0.403076,0.056396,0.149658,16.091602,-5.145038,-13.450381
0.363037,-0.035889,0.142578,3.847328,-8.236641,-7.053435
0.372314,-0.008301,0.153320,1.297710,-11.251908,-9.694656
0.315918,0.011963,0.163086,-4.145038,-7.832061,-6.778626
0.292725,0.009277,0.177979,-5.992366,-0.725191,4.580153
0.299561,-0.003906,0.187012,-4.519084,15.221375,12.854961
0.278076,-0.025146,0.189697,-1.992366,31.916031,15.854961
0.220215,-0.014893,0.142822,-2.900763,38.954197,17.824427
0.171387,-0.002441,0.104736,-7.587786,32.229008,19.709923
0.149658,-0.000732,0.092041,-11.969465,19.931297,18.770992
0.141357,0.073486,0.106934,-23.877863,9.251908,17.610687
0.132324,0.120850,0.119873,-34.687023,8.374045,17.740458
0.086426,-0.050293,-0.039551,-35.587788,14.290076,8.145039
0.014404,-0.262695,-0.103516,-45.519085,22.618320,21.458015
0.039795,-0.349609,-0.074707,-41.335876,26.595419,43.190838
0.230469,0.011230,-0.287354,-24.625954,-2.740458,64.389313
0.409180,0.369873,-0.075195,-56.885498,-42.511452,35.114502
0.576172,0.452393,0.079834,-80.725189,-29.687023,96.740456
1.294922,0.389160,-0.154297,-172.267181,-6.129771,248.175568
1.984314,0.208740,-0.687012,-249.618317,54.587788,248.175568
1.984314,0.112305,0.866211,-137.923660,168.335876,248.175568
1.984314,-0.335938,-1.420410,-63.045803,104.152672,189.198471
1.984314,-0.314697,-2.000000,-117.496185,248.175568,-71.145035
1.984314,-0.104492,-1.188721,-22.152672,44.954197,-85.648857
0.649658,-1.053467,1.984314,0.435115,107.122139,-98.778625
1.833008,0.432861,-2.000000,-3.488550,-51.030533,-143.862595
0.923340,1.984314,0.866943,18.931297,-11.786260,-32.664124
0.768311,0.951416,1.438965,8.496183,-19.122137,40.679390
1.563232,-0.066895,-0.663086,-11.091603,-119.076332,23.534351
1.627686,-0.553467,-1.090332,-23.358778,-42.015266,-9.656488
1.973877,-0.128662,1.728271,65.755722,-108.229004,-51.816795
1.345215,-0.656982,-0.159424,43.198475,-66.374046,-84.450378
1.984314,-0.460693,0.013672,59.725189,-117.862595,-136.206100
1.836426,-0.030029,0.343018,112.328247,-171.022903,-154.641220
1.674805,0.228271,0.407227,150.366409,-182.824432,-163.778625
1.560547,0.298096,0.072510,149.824432,-179.351151,-174.076340
1.492432,0.236572,-0.255859,147.679382,-176.007629,-178.618317
1.347168,0.220703,-0.218994,130.648849,-165.893127,-160.984726
1.199463,0.233154,0.073730,96.541985,-113.175575,-118.900764
1.384033,0.287842,-0.122559,42.923664,-61.259541,-59.251907
1.312988,0.179199,-0.495117,22.854961,32.656490,-15.770992
1.019531,0.383545,-0.149902,32.427483,76.007637,-15.412213
0.872070,0.277832,-0.434814,-6.702290,69.511452,-11.099236
0.619873,0.221436,-0.240234,13.977099,62.809162,-21.099237
0.520996,-0.056396,-0.303223,4.557252,36.152672,-21.106871
0.528320,0.002197,-0.016113,38.908398,3.030534,-35.793892
0.425293,-0.061035,-0.047852,58.618320,4.946565,-39.412212
0.423096,-0.010742,0.014404,52.114502,-4.977099,-27.198473
0.428955,0.123535,0.044922,51.954197,-0.068702,-19.389313
0.386719,0.201904,0.010010,34.648853,12.206107,-3.885496
0.360840,0.226807,0.016846,15.099236,18.977098,6.297710
0.313965,0.199707,-0.004150,5.992366,18.229008,6.000000
0.270752,0.159424,-0.018555,6.824428,12.167939,1.335878
0.244629,0.104980,0.019043,18.015266,1.236641,-3.839695
0.244873,0.049316,0.002930,24.038168,-7.778626,-1.374046
0.307373,0.071289,0.053955,24.832062,-8.549619,4.961832
0.347168,0.159180,0.069336,18.549618,-9.335877,5.625954
0.326172,0.198730,0.094238,4.770992,-2.732824,5.862596
0.278076,0.148682,0.130615,-8.267176,5.183206,12.083969
0.260986,0.095703,0.175781,-13.503817,11.190840,18.824427
0.259033,0.016602,0.220703,-10.297709,22.091602,22.961832
0.254150,-0.047119,0.222656,-3.236641,29.236641,23.824427
0.245117,-0.012695,0.156250,-1.854962,27.931297,21.572519
0.198730,0.084229,0.116455,-13.419847,23.076336,20.984734
0.296875,0.345703,0.242432,-26.786259,-15.274809,12.816793
0.389648,0.423096,0.138916,-56.702290,-43.725189,16.725191
-0.369629,0.038086,0.777588,-68.473282,50.221375,36.091602
0.773926,0.576172,0.780273,-66.358780,-50.145039,33.198475
0.584473,0.692383,-0.542480,-97.916031,-79.625954,5.213740
-0.163818,0.680176,1.984314,-64.374046,36.190838,46.893131
-0.057129,-0.774414,-1.559326,-150.519089,92.152672,92.900764
0.774658,1.274170,0.074219,-105.328247,-80.358780,93.610687
-0.196777,0.556641,1.984314,-127.870232,44.885498,181.435120
0.357910,0.231934,1.865479,-174.198471,83.931297,248.175568
1.750732,0.290771,1.343262,-168.160309,20.603054,248.175568
1.984314,-0.561279,-1.111328,-110.587784,0.000000,248.175568
1.984314,-0.469238,1.775146,-51.564884,248.175568,-7.519084
1.984314,-1.406982,-0.878174,-94.572517,203.351151,-91.717560
1.984314,-0.805908,0.920654,20.137405,-46.381680,-58.236641
0.576172,-0.934082,1.191406,28.488550,109.572517,-116.511452
-0.397705,0.331543,0.679687,43.786259,94.335876,-77.427483
0.314209,1.538086,0.567871,0.687023,-86.786263,52.755726
1.859131,0.568115,0.977051,20.625954,-113.839691,76.312981
1.984314,-0.100830,0.618408,10.480916,-60.190838,-0.519084
1.723877,-0.313232,0.380371,-0.519084,-26.366413,-39.480915
1.397705,-0.269531,0.626709,29.496183,-60.557251,-56.870228
1.559814,-0.414795,0.352783,53.076336,-146.366409,-88.244278
1.615967,-0.043457,0.428467,100.732826,-175.213745,-132.152664
1.806641,0.227051,0.371094,113.374046,-225.648849,-186.931305
1.533936,-0.043457,0.191406,110.129768,-172.450378,-205.190842
1.411621,-0.286377,-0.193359,120.908394,-159.572525,-202.923660
1.293701,-0.023926,-0.355225,168.145035,-171.793900,-175.648849
1.317383,0.333252,-0.359863,157.572525,-135.244278,-127.671753
1.424072,0.573242,-0.395752,113.748093,-82.725189,-82.145035
1.434570,0.531738,-0.321777,69.564888,-1.412214,-49.458015
1.228271,0.262695,-0.264893,29.145039,77.801529,-26.511450
0.888184,0.086670,-0.197998,15.297709,118.816795,-13.992367
0.528076,0.061035,-0.239502,24.572519,116.725189,-16.923664
0.264893,0.081787,-0.264160,36.595421,81.778625,-16.541985
0.164062,0.075684,-0.160889,47.137405,32.832062,-18.870230
0.197021,0.099609,0.013916,47.244274,-11.770992,-18.709923
0.355469,0.212891,0.184326,39.977100,-31.709923,-9.022901
0.527832,0.363037,0.325684,25.099237,-21.183207,-8.809160
0.515625,0.269531,0.346436,-2.923664,11.648855,-10.198473
0.420166,0.095215,0.339355,-11.648855,41.206108,4.938931
0.330078,-0.011230,0.280273,-2.832061,51.389313,11.374045
0.271240,-0.056641,0.251953,17.045801,44.854961,10.580153
0.274658,0.040283,0.180420,27.045801,15.839695,3.381679
0.358398,0.179443,0.180664,27.847328,-11.656488,-8.160305
0.442627,0.158691,0.164307,12.129771,-22.748091,-20.160305
0.373779,0.177734,0.477539,11.885496,-4.519084,-30.145039
0.266846,0.207031,0.750977,9.358779,-15.519084,-28.687023
-0.102539,-0.399414,-0.194336,-12.770992,78.503815,-1.946565
0.394775,0.420898,1.927246,18.549618,-20.000000,-7.595420
0.207275,0.548096,1.217773,6.007634,-88.465652,-1.358779
-0.524170,0.126709,1.984314,30.473282,-1.152672,13.656488
0.585937,-0.753174,-2.000000,-57.404579,92.259544,28.969465
0.476318,0.812256,1.284912,-0.610687,-86.114502,2.389313
-0.473145,0.137939,1.984314,-17.473282,35.366413,35.641220
-0.317139,0.074951,1.984314,-27.022902,45.305344,49.664124
0.320068,0.408203,1.112793,-42.396946,-41.129772,40.351147
0.326904,-0.337646,-1.562256,-88.770996,28.511450,55.877861
0.112793,0.447998,0.939453,-19.236641,41.244274,38.045803
-0.096924,-0.195557,-1.126465,-106.557251,16.045801,30.816793
0.531738,0.201172,-0.585449,-125.595421,-49.183205,62.900764
0.537842,0.397461,-0.234863,-116.793892,-57.595421,118.251907
0.719482,0.412598,-0.100586,-134.992371,-27.778625,189.229004
1.209717,0.406494,-0.148193,-204.916031,33.473282,248.175568
1.984314,0.174316,-0.061523,-221.122131,79.854965,248.175568
1.984314,-0.152100,0.564697,-96.251907,80.969467,248.175568
1.984314,-0.831299,0.937744,-84.381676,248.175568,-57.877861
1.984314,-1.763184,0.524414,-56.618320,150.450378,-49.091602
1.984314,-0.909424,0.099121,-6.099236,-36.770992,-110.007637
0.496094,-0.526855,0.571777,-4.694656,112.603050,-99.893127
-0.014648,1.232422,0.644043,-8.809160,141.297714,23.900763
0.145752,1.984314,0.446289,-9.809160,-12.511451,6.572519
1.260986,-0.091797,0.532715,-8.633588,-108.824425,111.229004
1.984314,-0.515625,0.533447,29.671755,-167.465652,37.206108
1.984314,-0.072266,0.502441,37.274811,-122.641220,-78.458015
1.930420,0.043701,0.440918,48.030533,-73.274811,-155.450378
1.533691,-0.158203,0.359863,72.358780,-106.862595,-184.816788
1.410156,-0.155762,0.341797,89.328247,-162.885498,-186.297714
1.452148,-0.106201,0.220215,116.183205,-212.969467,-186.603058
1.491211,-0.226318,0.144287,144.198471,-207.137405,-196.755722
1.503418,-0.163086,-0.092285,171.290070,-178.938934,-191.274811
1.481445,0.102783,-0.135742,174.778625,-155.435120,-149.938934
1.519531,0.448730,-0.106934,156.564880,-94.198471,-98.511452
1.529297,0.634277,-0.138916,107.503815,-31.541985,-59.633587
1.400391,0.514893,-0.302002,40.801525,41.282444,-33.916031
1.160889,0.242676,-0.367188,-2.427481,99.236641,-19.343512
0.853516,0.058838,-0.414551,-11.244275,111.473282,-17.404581
0.585205,-0.014893,-0.338623,4.061069,90.129768,-25.274809
0.379395,-0.015381,-0.241455,23.908398,49.122139,-36.496181
0.305176,0.021729,-0.128906,38.160305,10.671756,-34.167938
0.367920,0.084229,-0.026611,39.267174,-10.877863,-27.984734
0.493408,0.149902,0.038330,40.175571,-8.083969,-24.366413
0.414551,-0.024414,-0.043457,18.480917,30.274809,-10.503817
0.229492,-0.096924,0.187988,6.931298,88.694656,3.091603
0.856689,0.053223,-0.801025,-23.259542,13.396947,-0.885496
-0.231934,-0.156006,0.679687,-14.992367,137.725189,15.694656
-0.314697,-0.115234,1.984314,6.129771,128.343506,20.656488
-0.298096,-0.770996,0.006348,-38.679390,103.129768,15.404580
1.314453,0.362793,-2.000000,20.358778,-111.870232,-26.984734
-0.527588,0.032227,1.984314,35.236641,75.519081,7.717557
-0.265381,-0.649658,0.170410,-27.175573,87.633591,5.297710
-0.188477,-0.509766,0.217285,-31.328245,90.984734,1.366412
-0.078369,0.094482,1.872070,9.549619,72.290077,-1.763359
0.526855,0.056152,-0.481201,-12.175572,-77.206108,-6.618320
-0.301025,-0.089600,0.658936,-7.381680,64.038170,14.946565
0.599365,-0.117188,-0.536621,-33.114502,-17.167938,12.412213
0.634766,0.270508,0.248779,9.511451,-28.030535,0.954198
0.308838,0.280518,0.548828,19.748091,-0.748092,2.809160
0.187744,0.210693,0.458740,12.068703,13.893129,6.954198
0.204102,0.206299,0.244629,-1.213740,3.793893,13.083969
0.262451,0.175537,-0.137451,-28.977098,-25.152672,14.816793
0.204590,-0.004150,-0.238281,-67.389313,-23.473282,25.236641
0.159912,0.002930,0.122559,-60.564884,17.709923,46.847328
0.406250,0.225098,0.169678,-55.312977,-18.236641,33.358780
0.495850,0.020752,-0.412109,-74.496185,-4.221374,48.534351
0.374512,0.217041,-0.127441,-76.282440,12.068703,16.900763
0.278076,0.115723,-0.369385,-124.290077,-2.022901,41.709923
0.291260,0.337646,-0.145020,-124.916031,20.091602,130.091599
0.723633,0.185791,-0.104248,-198.778625,40.221375,248.175568
1.545410,0.242920,0.073975,-233.748093,33.274811,248.175568
1.984314,0.151123,0.467041,-169.190842,82.763359,248.175568
1.984314,-0.359375,0.733643,-31.809160,66.000000,248.175568
1.984314,-0.719971,0.818359,-57.335876,248.175568,-67.160309
1.984314,-1.359863,-0.089600,-50.618320,131.297714,-47.595421
1.984314,-0.347900,0.204102,-23.801527,-46.900764,-77.236641
0.922363,0.092529,0.683105,-0.603053,71.312981,-155.725189
0.003906,0.887207,0.708252,2.809160,114.389313,-86.404579
0.274902,0.298584,0.539551,-0.587786,-58.221375,50.832062
1.520752,-0.332520,0.633789,18.549618,-162.000000,78.343513
1.984314,-0.377441,0.531006,35.656490,-170.618317,7.297710
1.984314,-0.227539,0.486328,40.992367,-115.465652,-87.541985
1.984314,-0.109131,0.367676,68.022903,-83.564888,-175.152664
1.651855,-0.179443,0.251465,89.610687,-76.732826,-219.900757
1.414551,-0.195068,0.125732,113.916031,-104.404579,-218.511444
1.288086,-0.156006,0.059814,144.770996,-137.633591,-195.015274
1.303955,0.006348,0.095215,175.458008,-136.236649,-171.343506
1.277344,0.255859,-0.085449,184.564880,-133.229004,-141.068695
1.379395,0.629639,0.016357,154.175568,-125.145035,-91.793892
1.391602,0.928223,0.249023,115.366409,-57.038166,-62.732826
1.337891,0.780518,0.240967,60.496181,23.725191,-40.145039
0.496094,-0.025391,0.159912,39.931297,171.717560,-8.694656
1.067871,0.547119,0.942627,56.137405,63.633587,-27.839695
0.691895,0.646973,-0.398682,40.748093,-5.587786,-36.305344
-0.096191,0.681885,1.984314,74.343513,5.541985,-28.122137
-0.049072,-0.751221,-1.422119,-28.435114,75.236641,-3.687023
1.207275,0.859375,-0.200684,25.916031,-157.297714,-40.290077
0.352539,0.578613,1.984314,60.419846,-67.694656,-27.526718
0.453125,0.482178,1.971680,55.557251,-34.076336,-28.809160
0.878174,0.372803,-0.097900,23.832062,-54.587788,-22.351145
0.123291,-0.265381,-1.008545,0.664122,104.152672,12.366412
0.790527,0.577393,0.920410,45.030533,10.068703,-1.694656
-0.331299,-0.044189,-0.008301,12.129771,69.992363,13.068703
0.393799,-0.139648,-0.493896,-22.809160,19.503817,1.671756
0.542725,-0.004639,-0.434570,-13.137404,-34.419846,-11.664123
0.541748,0.036621,-0.238281,-1.404580,-49.419846,-12.931297
0.519043,-0.027588,-0.233154,-1.053435,-30.106871,-6.198473
0.382568,-0.140137,-0.183350,-5.618320,15.206107,2.351145
0.175537,-0.098877,0.163574,2.374046,53.381680,6.366412
0.215820,0.130615,0.365967,10.190840,23.435114,6.763359
0.309326,0.029785,-0.139404,-12.603053,4.114504,20.358778
0.146729,-0.051758,0.113525,-5.022901,50.099236,25.862595
0.317627,0.087891,0.127197,-20.305344,5.992366,22.847328
0.204102,-0.012451,-0.086426,-19.335878,42.496181,24.580153
0.313232,0.099609,0.097656,-18.557251,2.419847,18.526718
0.227051,0.184082,0.070068,-13.374045,19.007633,9.954199
0.247314,0.142822,0.002930,-42.480915,-10.000000,13.564885
0.306641,0.127686,0.106201,-41.732826,-5.022901,19.854961
0.302734,0.041016,-0.013916,-60.916031,12.389313,31.526718
0.312744,0.033203,0.011475,-92.984734,9.717557,50.351147
0.397217,0.120117,0.136475,-88.045799,7.007634,60.580154
0.432129,0.237061,0.071777,-87.221375,-3.732824,52.618320
0.414062,0.307373,0.014893,-117.511452,-17.496183,59.030533
0.511719,0.061523,0.157471,-162.572525,7.687023,185.511444
1.030029,-0.067871,0.132812,-211.312973,51.557251,248.175568
1.615234,-0.062744,0.196777,-223.519089,90.091606,248.175568
1.984314,-0.186768,0.421387,-147.916031,97.625954,248.175568
1.984314,-0.360352,0.659912,-32.351147,20.694656,248.175568
1.984314,-0.533936,0.804932,-50.274811,248.175568,-90.450378
1.984314,-1.197998,-0.252441,-45.419846,73.618324,-54.671757
1.984314,-0.356689,-0.115234,-13.946565,-45.045803,-88.755722
0.766113,0.048096,0.724609,25.251909,67.427483,-143.213745
-0.019531,0.862549,0.779297,15.923664,71.267174,-50.450382
0.346680,0.510254,0.565918,2.412214,-66.580154,52.114502
1.472900,-0.031982,0.667969,14.854961,-137.664124,74.541985
1.984314,-0.320313,0.354248,26.992367,-167.442749,11.145039
1.984314,-0.504639,-0.041992,13.236641,-116.709923,-69.893127
1.984314,0.040283,1.093262,90.770996,-105.450378,-135.946564
1.883789,-0.399902,-1.789795,51.854961,-147.404587,-212.022903
1.929199,-0.690186,-1.701660,64.114502,-110.633591,-226.954193
1.984314,0.178223,-2.000000,128.190842,-242.007629,-216.816788
0.517578,0.257568,1.984314,162.641220,-53.908398,-147.091599
1.984314,-0.278076,-2.000000,160.450378,-201.587784,-180.778625
1.973633,1.043701,-0.509033,198.580154,-218.442749,-145.267181
1.725342,1.241699,0.484131,152.900757,-149.793900,-91.083969
1.831055,0.773926,-1.021484,62.389313,-79.526718,-60.015266
0.843018,-0.138916,-0.837891,-15.290076,105.893127,-14.671756
1.134033,0.434082,0.945068,37.992367,93.236641,-13.427481
-0.092041,-0.288574,-0.362793,3.618321,119.969467,-0.488550
0.697021,-0.010986,-0.570801,7.236641,17.961832,-26.122137
0.575928,0.322266,-0.168213,22.190840,-43.877861,-25.503817
0.375000,0.377441,0.434570,23.541985,-53.885498,-16.526718
0.508057,0.281982,0.388916,17.832062,-52.770992,-17.045801
0.589600,0.155518,0.124512,10.977099,-43.427483,-16.954199
0.541260,0.013672,-0.141113,0.229008,-9.427481,1.458015
0.341553,-0.000244,-0.013672,7.068702,43.129772,13.152672
0.325684,0.267334,0.371826,22.160305,21.625954,-2.267176
0.401123,0.176270,-0.118896,0.427481,-17.824427,-10.816793
0.176270,0.016113,0.067871,7.877862,14.824428,-15.557252
0.320313,0.065430,0.249023,-4.969466,-31.587786,-15.015267
0.203857,-0.008057,0.028809,-2.977099,-1.267176,-11.419847
0.324951,-0.050293,0.159424,-2.786260,-25.145039,-7.206107
0.258057,-0.026611,0.136230,8.618320,-0.160305,-7.793893
0.244873,-0.082275,0.098145,0.320611,1.786260,12.167939
0.335449,0.016113,0.124512,2.152672,4.282443,16.305344
0.308350,0.042725,0.078613,-6.274809,20.839695,14.595420
0.243164,0.019531,0.021729,-17.564886,24.908398,18.778625
0.216553,0.035645,0.000244,-25.030535,18.900763,20.435114
0.215332,0.044922,-0.013672,-22.961832,5.580153,16.801527
0.219727,0.078613,-0.046631,-30.206106,-16.244274,13.580153
0.304443,0.085449,0.072754,-28.893129,-26.725191,16.458015
0.427490,0.084717,0.024414,-18.007633,-28.038168,18.358778
0.499512,0.133789,-0.066406,-30.412214,-18.412214,14.122137
0.464844,0.100098,-0.042236,-54.755726,-4.480916,30.847328
0.433105,0.228516,-0.056152,-79.564888,-10.839695,18.778625
0.386475,0.115723,-0.003418,-84.549622,1.641221,47.206108
0.535156,0.180176,-0.085693,-98.335876,9.282443,124.847328
0.886230,0.350098,-0.126465,-152.061066,37.870228,217.862595
1.279297,0.406738,-0.202881,-215.412216,74.770996,248.175568
1.627197,0.253662,-0.103271,-227.068695,112.442749,248.175568
1.984314,0.057129,0.189209,-150.961838,119.877861,248.175568
1.984314,-0.109863,0.196045,-94.015266,59.908398,248.175568
1.984314,-0.066406,1.228027,-59.679390,248.175568,25.572519
1.984314,-1.072021,0.620850,-66.183205,248.175568,-50.877861
1.855957,-0.811279,0.811279,11.290076,-28.992367,-78.412216
1.336670,0.201416,-0.485107,-13.274809,5.725191,-134.374039
0.253906,1.226074,1.502930,25.519083,4.938931,-83.664124
-0.540283,-0.116943,1.984314,-10.908397,77.366409,50.083969
1.984314,0.254639,-1.962646,-27.580153,-152.847336,11.206107
1.984314,-0.028564,0.930176,38.534351,-185.213745,-3.160305
1.984314,-0.120361,0.601807,49.648853,-167.877869,-51.916031
1.964844,-0.269287,-1.289307,17.152672,-129.580154,-111.870232
1.278320,-0.153809,0.975586,99.717560,-28.198473,-120.000000
1.888184,-0.122803,0.065674,105.496185,-173.190842,-147.641220
0.969482,0.131836,1.051758,155.076340,-116.534348,-151.923660
1.077637,-0.210449,0.234863,142.587784,-132.290070,-146.328247
1.411621,-0.184814,-0.165283,154.458008,-197.259537,-153.511444
1.589355,0.044189,-0.185791,182.656494,-250.137405,-153.839691
1.627441,0.375244,-0.315918,166.671753,-228.572525,-147.335876
1.523926,0.393555,-0.267334,112.969467,-106.175575,-111.793892
1.378662,0.232910,-0.153809,62.557251,0.748092,-56.381680
1.336182,0.117676,-0.250000,38.114502,55.381680,-18.328245
1.146729,-0.009766,-0.650635,22.961832,87.725189,-0.229008
0.705078,0.076416,-0.385010,36.618320,117.519081,-6.099236
0.666748,0.320801,-0.406738,26.503817,33.190838,-24.648855
0.503418,0.220703,-0.553711,20.213741,13.183207,-35.763359
0.635498,0.249512,-0.141602,25.557251,-37.175571,-52.312977
0.537842,0.060791,-0.157715,27.725191,-6.106870,-48.473282
0.562256,0.043945,-0.054932,8.022901,-4.229008,-30.488550
0.438965,0.099609,0.106934,15.320611,41.832062,-14.656488
0.257324,0.058105,0.093750,-0.236641,71.534348,10.625955
0.170654,0.064941,0.081299,-10.351145,70.190842,26.396946
0.132812,0.105957,0.062256,-5.679389,59.755726,23.854961
0.078125,0.025146,0.020264,-5.977099,35.832062,10.236641
0.077637,-0.092773,0.091064,6.900764,8.954199,9.709924
0.187256,-0.060791,0.126953,18.687023,-12.847328,2.778626
0.283203,-0.000244,0.112061,16.549618,-18.687023,-8.488549
0.321045,-0.015381,0.100342,2.717557,-9.877863,-11.687023
0.298584,-0.024414,0.114990,-8.687023,2.595420,-11.900764
0.230225,0.006104,0.108887,-11.900764,12.984733,-8.274809
0.177002,0.056885,0.085449,-13.213740,17.862595,1.465649
0.177002,0.059814,0.083740,-12.595420,21.580153,10.129771
0.192627,0.045410,0.026367,-10.717557,22.541985,13.572519
0.215332,0.070312,0.003418,-2.297710,17.534351,12.374045
0.231689,0.089844,-0.030518,-3.076336,8.801527,14.503817
0.287354,0.112305,-0.045898,-12.610687,2.167939,20.541985
0.379395,0.194336,0.007080,-17.893129,4.015267,19.076336
0.575195,0.113281,-0.281738,-36.702290,-22.877863,12.152672
0.698242,-0.086914,-0.681152,-48.648853,-8.717557,23.145039
0.076172,0.327881,0.949951,-24.763359,-5.435114,11.053435
0.922852,0.315430,-0.933838,-80.625954,-68.656487,28.190840
1.166748,0.652588,-2.000000,-90.404579,-43.236641,63.549618
0.926025,1.512939,1.281982,-65.885498,-93.961830,101.435112
0.441895,-0.271729,0.145020,-170.854965,150.427475,246.549622
1.984314,1.036865,-0.991455,-247.465652,-1.396947,248.175568
1.346680,0.477295,1.984314,-183.946564,78.328247,248.175568
1.720947,-0.372314,1.984314,-85.946564,105.709923,248.175568
1.984314,-0.165771,1.552979,-56.022900,-26.671755,244.862595
1.984314,-0.454590,-0.897217,-90.511452,248.175568,-21.694656
1.984314,-0.872314,1.205811,-36.610687,220.603058,-47.290077
1.322998,-0.962402,-0.956787,-92.648857,119.610687,-124.145035
0.949951,-0.295166,0.669678,-12.916031,68.244278,-142.053436
0.154053,0.393311,1.259033,22.839695,1.633588,-50.885498
0.594482,0.336182,1.261475,38.618320,-78.068703,24.839695
1.470703,0.121338,0.971924,47.534351,-133.358780,17.854961
1.967529,-0.182617,0.580811,40.473282,-141.335876,-20.557251
1.984314,-0.411865,0.250732,28.198473,-104.923668,-64.381676
1.739502,-0.312988,0.497070,71.801529,-76.610687,-113.015266
1.645752,-0.073730,0.489746,111.511452,-126.358780,-150.564880
1.530762,-0.127686,0.016357,115.381676,-126.557251,-173.259537
1.289551,-0.084229,0.379883,156.679382,-142.137405,-172.114502
1.373291,-0.061768,-0.027344,158.534348,-159.450378,-180.656494
1.237793,0.071533,-0.052979,202.870224,-175.213745,-174.503815
1.300537,0.279053,-0.127686,187.687027,-153.022903,-149.694656
1.233398,0.577148,-0.176025,141.938934,-128.519089,-105.259544
1.169678,0.526611,-0.285889,77.297707,-45.129772,-47.213741
1.204102,0.278809,-0.166992,30.870230,17.488550,1.603053
1.087646,0.253174,-0.167236,17.961832,55.740459,11.213740
0.855713,0.234131,-0.195801,17.732824,74.083969,-1.358779
0.627686,0.176514,-0.343994,10.396947,54.778625,-12.305344
0.499023,0.084473,-0.321289,3.511450,20.763359,-19.236641
0.477783,0.040283,-0.183838,1.022901,-16.625954,-21.816793
0.527832,0.108887,-0.083252,2.977099,-36.473282,-24.427481
0.568848,0.148682,0.003662,6.938931,-31.648855,-23.274809
0.560059,0.109863,0.077393,8.015267,-12.183207,-13.435115
0.491455,0.017822,0.098145,11.557252,13.320611,-0.908397
0.394287,0.023926,0.085693,21.396946,29.740458,6.167939
0.294922,0.092041,0.040527,25.954199,30.022902,6.259542
0.235596,0.154785,0.026367,22.954199,15.068703,5.664122
0.232910,0.190186,0.031494,9.022901,-3.106870,4.900764
0.286377,0.189453,0.081055,3.458015,-15.122137,3.015267
0.349609,0.150146,0.125732,5.335878,-15.053435,-3.885496
0.336182,0.075439,0.263916,11.175572,3.328244,-4.129771
0.468750,0.081055,0.114746,16.916031,-15.938931,-5.129771
0.563721,0.009277,-0.273926,12.198473,-15.076336,0.893130
-0.054199,0.295166,1.222412,55.007633,31.267176,9.419847
0.677246,0.131348,-1.277344,-3.633588,-64.656487,10.030535
0.791992,0.041992,-2.000000,-23.099237,-45.702290,1.847328
0.906738,0.822998,-0.418945,26.335878,-87.381676,-6.091603
-0.798340,-0.295410,1.984314,-7.694656,115.129768,22.717558
1.090576,0.107422,-2.000000,-20.755726,-87.251907,-7.038168
0.510986,0.806396,0.854248,14.251908,-54.305344,8.900764
0.384521,0.702637,1.119385,-2.030534,-40.404579,20.480917
0.752686,0.508545,-0.868164,-56.358780,-90.664124,22.129770
0.279297,-0.190186,-1.078613,-88.870232,30.320610,38.274811
0.836670,0.521729,1.092285,-23.877863,-16.099237,22.854961
-0.014893,-0.199219,-0.554687,-66.557251,52.190838,71.335876
1.060059,0.050049,-0.653809,-115.389313,42.190838,149.099243
1.270020,0.340576,-0.425781,-154.870224,65.870232,248.175568
1.476318,0.296875,-0.291260,-187.450378,81.038170,248.175568
1.855469,0.254150,-0.217285,-169.549622,70.541985,248.175568
1.984314,-0.133057,0.115479,-86.099236,38.854961,248.175568
1.984314,0.211670,1.190186,-84.961830,182.908401,118.251907
1.984314,-1.280029,-0.199463,-112.160309,248.175568,-31.984734
1.919189,-1.046387,-0.157959,-39.725189,71.687019,-14.458015
1.877441,-0.772217,0.942383,-14.091603,59.488548,-92.480919
0.382080,0.119873,0.766846,-0.938931,72.007637,-81.854965
0.427246,0.800537,0.684082,7.053435,-40.213741,1.694656
1.123779,0.457764,0.767578,-6.320611,-30.519083,30.068703
1.653320,-0.156250,0.625488,16.480917,-95.603050,19.236641
1.845947,-0.248779,0.657471,29.961832,-87.862595,-9.732824
1.852539,-0.384521,0.394287,36.083969,-107.503815,-46.328243
1.811768,-0.327881,0.417725,52.152672,-125.297707,-91.740456
1.681641,-0.251465,0.413818,69.832062,-113.641220,-145.030533
1.592285,0.030762,0.262451,92.137405,-131.183212,-198.885498
1.448242,0.019043,0.007324,102.335876,-172.030533,-219.450378
1.401367,-0.077637,-0.078369,106.160309,-205.641220,-201.519089
1.451172,-0.122803,-0.120850,139.427475,-217.549622,-194.389313
1.501953,0.111816,-0.052002,162.320618,-206.839691,-183.236649
1.434814,0.454346,-0.112061,151.351151,-129.946564,-140.083969
1.323730,0.641113,-0.311279,88.679390,-43.557251,-67.305344
1.250732,0.544922,-0.362305,16.839695,49.946564,-8.442748
1.051270,0.226807,-0.354980,-17.091602,126.183205,7.961832
0.716553,0.013672,-0.304443,-15.473283,147.267181,1.198473
0.368652,-0.075195,-0.232910,12.961832,125.992363,-13.541985
0.144287,0.008057,-0.231689,44.511452,69.167938,-21.763359
0.128906,0.156006,-0.124512,54.488548,4.297710,-31.916031
0.222900,0.179199,-0.007813,49.152672,-30.847328,-36.763359
0.366699,0.095459,0.005371,36.274811,-25.122137,-24.244274
0.376465,0.189209,0.310059,37.282444,10.893129,-15.648855
0.315918,0.399414,0.555664,28.885496,8.366412,-3.259542
-0.140869,-0.127441,-0.085937,4.343512,99.984734,21.877863
0.493896,0.721436,1.670898,40.290077,-17.908398,4.938931
0.338623,0.788086,0.721436,29.061069,-89.656487,-6.427481
-0.353516,0.557129,1.984314,56.862595,-28.427481,-3.610687
0.230713,-0.788330,-1.717529,-30.229008,79.839691,10.007633
0.847412,0.820801,0.592773,28.381680,-115.961830,-24.580153
-0.202393,0.306885,1.984314,50.480915,-0.183206,3.366412
-0.085693,0.273438,1.984314,43.564884,12.702291,13.954199
0.520996,0.438232,0.675293,12.000000,-60.259541,8.404580
0.191162,-0.280762,-1.397705,-48.893131,45.114502,20.824427
0.446289,0.442139,1.370117,13.091603,24.603054,8.694656
-0.195068,-0.313232,-0.484863,-35.694656,65.702293,28.458015
0.635498,-0.112793,-0.320801,-48.877861,15.885496,17.541985
0.509277,0.104004,-0.071777,-35.877861,-14.557252,16.045801
0.414795,0.213379,0.046387,-34.435116,-20.633587,16.763359
0.434570,0.207031,-0.014404,-42.267174,-28.290077,15.755725
0.487793,0.084717,-0.208496,-65.236641,-25.709923,23.610687
0.448242,-0.019531,-0.199951,-78.572517,10.290076,36.244274
0.383545,0.179199,0.038086,-78.580154,25.358778,41.114502
0.535645,0.352783,-0.155762,-87.740456,-15.412213,47.160305
0.606201,0.124023,-0.532959,-118.618324,39.496181,126.595421
0.833008,0.247314,-0.168945,-140.435120,76.755722,247.648849
1.325684,0.131592,-0.538818,-187.419846,96.618324,248.175568
1.517334,0.082275,-0.044189,-150.511444,107.198471,248.175568
1.984314,-0.213867,0.362061,-101.320610,109.053436,246.641220
1.984314,-0.141357,1.207031,-42.816795,78.862595,200.549622
1.984314,-1.316162,0.073975,-86.572517,248.175568,-70.328247
1.984314,-1.236816,0.044434,-47.442749,79.297707,-43.511452
1.981201,-0.351318,0.618164,-39.946564,46.824429,-104.992363
0.418945,0.092041,0.566650,-1.404580,75.175575,-108.587784
-0.135498,0.935547,0.851807,22.343512,36.290077,-29.198473
0.640381,0.707520,1.031982,6.419847,-65.099236,57.206108
1.650146,-0.064453,0.974854,16.496183,-91.129768,42.648853
1.976563,-0.267578,0.665039,31.343512,-99.427483,-4.503817
1.899902,-0.269531,0.409424,39.076336,-110.137405,-45.664124
1.794922,-0.277832,0.362793,58.786259,-109.343513,-82.251907
1.708740,-0.211670,0.294678,78.587784,-116.480919,-118.557251
1.600586,-0.011963,0.262207,98.900764,-122.870232,-157.702286
1.487793,0.149170,0.198730,114.137405,-132.015274,-186.580154
1.384033,0.134521,0.049316,107.732826,-154.671753,-183.000000
1.328857,-0.130371,-0.098145,105.305344,-170.389313,-164.503815
1.369629,-0.231934,-0.156006,118.312981,-172.343506,-154.083969
1.376465,0.064453,-0.188965,128.145035,-140.458008,-142.320618
1.250977,0.246582,-0.207031,107.167938,-83.389313,-97.038170
1.209961,0.536133,0.129395,86.961830,-27.526718,-49.328243
1.189453,0.625244,0.110107,52.564884,19.183207,-20.671755
