ax,ay,az,gx,gy,gz
-0.471680,0.950928,0.953857,45.503819,-13.572519,-26.198473
-0.464600,0.382568,-0.205078,-9.038168,4.664122,-4.732824
-0.018311,0.793213,-0.561279,-29.366413,-37.244274,-6.236641
-0.048340,1.048828,-0.331299,-73.343513,-40.519085,-0.152672
-0.166748,0.841309,-0.076172,-154.885498,-21.190840,3.358779
-0.322510,0.311035,0.005371,-235.312973,-12.770992,4.412214
-0.531494,-0.175293,0.059814,-250.137405,-6.862596,2.694656
-0.770508,-0.424805,0.357422,-250.137405,-6.992366,-0.656489
-0.740723,-0.320313,0.276855,-215.404587,-96.564888,2.030534
-0.557129,-0.491211,-0.130371,-179.419846,-186.435120,26.061069
-0.567383,-0.644775,0.363525,-140.259537,-184.335876,51.305344
-0.234131,-0.685303,0.976074,-112.893127,-232.274811,63.595421
-0.041504,-0.833008,1.216553,-81.053436,-188.374039,82.854965
0.250000,-0.504883,1.599609,-21.358778,-179.541992,81.854965
0.274170,-0.163086,1.732910,44.122139,-104.679390,73.496185
0.256348,0.170654,1.559570,69.274811,-58.000000,77.328247
0.197998,0.574707,1.315186,66.473282,-17.618320,71.755722
0.044434,0.697021,1.065674,34.809162,31.854961,70.175575
-0.102783,0.627686,0.969482,-6.389313,28.091602,70.305344
-0.134766,0.539795,1.017578,-30.358778,-13.190840,65.083969
-0.044434,0.491211,1.088623,-36.748093,-45.526718,54.809162
0.071045,0.469727,1.070313,-34.381680,-52.450382,47.320610
0.091797,0.479248,1.045654,-22.557251,-46.419846,56.488548
0.164795,0.455078,1.024902,-5.389313,-21.893129,93.870232
0.270508,0.484863,0.924561,3.969466,1.458015,98.862595
0.254639,0.530029,0.874756,-3.267176,-3.381679,74.167938
0.187500,0.586670,0.878662,-15.328244,-11.503817,50.725189
0.149414,0.572754,0.879639,-19.000000,-20.091602,43.740459
0.182373,0.552002,0.822266,-16.244274,-28.732824,44.129772
0.217529,0.534180,0.741943,-8.732824,-36.954197,46.603054
0.285156,0.574951,0.612793,6.038168,-45.572517,51.916031
0.328125,0.747559,0.423828,13.618320,-59.061069,44.526718
0.334961,0.735352,0.386230,26.343512,-72.175575,37.106869
0.314209,0.463135,0.346680,40.641220,-83.030533,29.068703
0.315186,0.068115,0.431152,85.351143,-99.167938,27.404581
0.337402,-0.148437,0.083984,154.526718,-122.259544,28.587786
0.378906,0.491211,-0.248535,199.595413,-177.458008,31.885496
0.582031,1.646484,0.415039,240.702286,-235.633591,22.267176
0.795654,1.984314,0.490723,220.725189,-241.206100,18.816793
1.051514,1.970947,0.591064,68.824425,-193.145035,42.595421
1.288574,1.572021,0.724854,-92.076332,-108.740456,56.916031
1.285400,0.955566,0.961426,-147.236649,-43.694656,43.870228
1.221680,0.312500,1.013672,-125.854965,-20.419847,29.320610
0.935547,-0.167480,1.145020,-57.137405,21.114504,20.496183
0.660889,-0.124512,1.200439,23.847328,13.687023,17.229008
1.061279,-0.479492,0.028320,54.206108,-2.259542,25.770992
0.333740,0.564209,1.898193,173.824432,32.900764,25.091602
0.459961,0.910889,1.984314,212.503815,13.297709,37.458015
-0.153564,-0.062012,1.681641,157.267181,102.862595,57.839695
1.908691,0.406982,-2.000000,131.061066,-75.282440,24.053434
-0.031494,1.079346,1.984314,213.946564,77.030533,43.343510
0.279053,-0.103760,0.001953,177.549622,108.656487,46.625954
0.503174,0.084473,-0.512207,199.961838,86.099236,33.885498
0.193848,0.806396,1.080566,237.603058,107.717560,29.343512
0.787598,1.903564,1.363770,248.175568,-13.007633,6.488550
0.201416,0.854004,-0.926514,151.511444,54.664124,21.015266
0.925293,1.866943,0.572266,143.954193,5.045802,-13.290076
-0.268799,0.967529,0.394775,67.038170,68.580154,7.946565
-0.137695,0.150635,-0.099854,-10.389313,85.778625,29.419847
0.018311,-0.130371,-0.310303,-33.076336,52.129772,51.480915
0.068848,-0.157715,-0.249512,3.656489,16.648855,67.099236
0.077637,-0.059326,0.063232,66.687019,-14.282443,75.099236
0.159180,0.245117,0.317871,130.969467,-46.419846,74.480919
0.415283,0.627930,0.077393,150.618317,-103.427483,76.931297
0.552490,0.861328,-0.213379,129.435120,-98.702293,85.923668
0.541504,1.264404,0.613770,135.473282,-71.145035,73.007637
0.850342,1.442383,0.519043,73.290077,-90.114502,59.213741
0.787598,1.096191,0.521240,8.473283,-10.000000,61.465649
0.929687,1.010254,0.578369,-50.488548,-29.809160,58.519085
0.863525,0.868652,0.643066,-59.160305,5.358778,53.549618
0.902832,0.728271,0.502441,-71.839691,-19.366413,50.244274
0.904785,0.585693,0.555664,-51.488548,-11.122137,39.511452
0.816650,0.276611,0.451904,-44.427483,18.694656,39.404579
0.691895,0.239014,0.166504,-36.488548,14.358779,45.900764
0.573242,0.552002,0.070801,-18.694656,-9.076336,51.129772
0.490723,0.989746,0.044678,-13.725191,-23.702290,52.206108
0.471924,1.197266,-0.006348,-38.122139,-48.511452,50.259541
0.543701,1.106201,-0.115234,-95.022903,-82.633591,48.595421
0.661133,0.744385,0.017822,-150.961838,-89.213737,55.641220
0.770508,0.303711,0.281982,-164.832062,-61.916031,64.847328
0.798340,0.008789,0.434326,-130.213745,-32.465649,70.687019
0.780029,-0.003662,0.511719,-72.381676,-18.030535,71.534348
0.751953,0.294678,0.490479,-26.076336,-19.083969,61.618320
0.733154,0.602783,0.400635,-9.175572,-32.419846,47.458015
0.762451,0.749512,0.231445,-20.053434,-50.022900,35.763359
0.860596,0.702148,0.192139,-36.503819,-54.671757,30.198473
0.978516,0.566895,0.151855,-36.213741,-43.946564,26.244274
1.063965,0.359619,0.232178,-27.748091,-20.190840,20.519083
1.062744,0.244629,0.243408,-14.511451,7.251908,13.977099
0.966309,0.234619,0.162109,-1.320611,26.167938,10.679389
0.855713,0.253662,0.086426,6.694656,34.984734,9.496183
0.787842,0.259766,0.144287,21.396946,25.992367,6.175572
0.775391,0.213867,0.145020,26.076336,6.549618,5.885496
0.835937,0.148682,0.216553,23.664122,-7.648855,4.938931
0.903076,0.026855,0.289307,27.198473,-12.129771,8.519084
0.983643,-0.039063,0.320557,41.267174,-8.725191,14.091603
1.028320,-0.004395,0.342041,64.847328,4.473282,16.343512
1.066162,0.135986,0.352295,95.198471,14.435115,11.305344
0.952881,-0.015381,0.145996,112.809158,57.221375,19.893129
0.825439,-0.129639,0.083008,115.938934,86.893127,26.129770
1.466064,0.662598,-0.021484,126.519081,-13.000000,9.816793
0.474365,-0.266846,-1.211182,107.519081,88.221375,29.549618
0.709473,-0.193115,-0.917480,115.648857,129.480911,25.541985
1.561523,0.280762,-2.000000,86.816795,1.534351,19.938931
0.276123,1.507080,1.984314,176.076340,-29.923664,11.541985
1.223145,-0.498291,-2.000000,78.465652,67.396950,32.664124
1.983154,1.038086,-0.677734,118.366409,-95.946564,-7.221374
1.904541,1.198730,0.261963,153.129776,-92.465652,-31.526718
1.866455,0.627930,-0.975098,131.832062,-30.755726,-44.557251
1.030273,0.198486,0.079102,156.366409,132.916031,-47.412212
1.705322,1.190674,0.636230,185.236649,23.244274,-66.847328
0.504639,0.335449,-0.143066,174.389313,138.534348,-50.244274
1.482422,0.517822,-0.431396,177.923660,89.198471,-65.687019
1.395752,0.997070,-0.676758,194.152664,28.801527,-91.633591
1.211914,1.345947,-0.660645,197.358780,8.465649,-112.404579
1.126221,1.593994,-0.874268,184.717560,-1.938931,-128.099243
1.093262,1.629395,-1.059082,132.816788,3.068702,-136.152664
0.906982,1.484619,-1.252930,53.145039,33.419846,-130.557251
0.624023,1.467773,-0.970947,-16.236641,52.083969,-124.083969
0.586426,1.672119,-0.876953,-72.404579,-4.038168,-131.610687
0.646484,1.544434,-1.329102,-161.206100,-41.702290,-127.427483
0.354492,1.252686,-1.143555,-233.809158,-17.641222,-110.106873
0.414795,1.067627,-1.341797,-250.137405,-75.442749,-87.916031
0.258789,0.560059,-0.904785,-250.137405,-50.076336,-59.290077
0.428955,0.105957,-0.480713,-250.137405,-109.412216,-49.381680
0.542725,-0.218750,-0.045898,-250.137405,-136.961838,-56.625954
0.742676,-0.372314,0.043701,-250.137405,-146.648849,-62.145039
0.876953,-0.178955,0.287598,-250.137405,-134.076340,-77.526718
0.786865,0.146729,0.362305,-250.137405,-89.519081,-80.404579
0.639404,0.494141,0.381348,-250.137405,-66.022903,-66.160309
0.559082,0.688965,0.469238,-250.137405,-56.618320,-56.648853
0.522705,0.655518,0.453613,-250.137405,-55.709923,-61.007633
0.472412,0.464355,0.478271,-250.137405,-59.465649,-70.541985
0.422852,0.244385,0.492676,-250.137405,-61.557251,-74.122139
0.404541,0.156494,0.460449,-250.137405,-63.984734,-71.274811
0.384277,0.152100,0.464600,-209.061066,-62.450382,-66.137405
0.401855,0.110840,0.612061,-163.900757,-59.618320,-59.648853
0.438721,0.046387,0.689209,-121.679390,-60.854961,-53.526718
0.492920,0.010254,0.789307,-85.389313,-55.763359,-44.946564
0.531250,0.011475,0.791016,-45.816795,-43.236641,-36.381680
0.520508,-0.017334,0.666748,-10.877863,-28.572519,-25.427481
0.488770,-0.003174,0.579834,15.526717,-23.404581,-8.580153
0.496826,0.035156,0.530762,33.610687,-29.717558,8.251908
0.542725,0.039795,0.468018,46.099236,-37.778625,20.763359
0.592285,0.039307,0.404785,58.603054,-45.244274,28.870230
0.651367,0.093262,0.425537,74.793892,-51.427483,35.564884
0.761230,0.276367,0.433105,84.526718,-60.007633,46.854961
0.942627,0.438965,0.433594,87.000000,-64.511452,53.229008
1.102051,0.471436,0.460937,79.763359,-53.320610,50.656490
1.157471,0.416748,0.436523,78.541985,-32.503819,44.687023
1.119629,0.347168,0.411865,86.656487,-15.374045,41.526718
1.041992,0.388916,0.293213,96.732826,-10.732824,41.442749
1.055176,0.492676,0.301514,94.862595,-15.984733,41.969467
0.914795,0.436035,0.481445,93.442749,16.679390,41.412212
0.774658,0.507812,0.856445,106.824425,19.954199,29.748091
0.970459,-0.153809,-0.275879,63.984734,19.328245,43.396946
0.776611,0.940918,1.984314,119.793892,69.305344,43.595421
0.860352,1.351074,1.984314,120.694656,60.786259,41.564884
-0.100098,0.570801,1.984314,58.526718,128.511444,35.366413
1.392090,-0.311279,-2.000000,-11.694656,-45.335876,22.435114
0.536865,1.716797,1.984314,58.954197,76.167938,34.732826
-0.101074,0.261230,1.743164,-14.564885,123.206108,29.236641
0.043701,0.104980,1.150879,-22.450382,111.786263,20.351145
0.280518,0.891602,1.984314,1.870229,80.106873,15.969465
0.998291,0.814697,0.129639,-25.290077,-64.534348,5.564886
0.042480,-0.005371,0.565918,-62.190838,50.503819,21.770992
1.252930,0.610107,0.830078,-29.106871,-50.801525,-3.274809
0.457520,0.445557,1.187012,28.435114,-39.297710,0.793893
0.545410,0.313232,0.971680,29.129770,2.167939,17.648855
0.734131,0.427979,0.787354,19.984734,31.503817,22.687023
0.785156,0.602051,0.831299,24.190840,48.564884,9.984733
0.763428,0.802979,0.861572,29.450382,31.908398,-5.282443
0.802246,0.892578,0.474609,13.778625,4.282443,-8.099236
0.739014,0.544678,-0.002441,-21.648855,22.763359,3.908397
0.510254,0.358154,0.192139,-23.022902,41.862595,3.335878
0.722656,0.629883,0.318359,-31.114504,-22.770992,-6.603054
0.731201,0.406250,0.194580,-46.206108,-7.671756,9.106871
0.941650,0.626221,0.703613,-28.519083,-26.343512,-7.534351
0.932617,0.384277,0.433594,-50.404579,7.671756,5.496183
1.011719,0.453613,0.555176,-28.061069,6.068702,-5.480916
0.867187,0.305664,0.467285,-9.748092,30.687023,-3.534351
0.855957,0.305176,0.465332,11.053435,28.450382,-1.244275
0.882324,0.394043,0.515381,47.297710,8.854961,-10.244275
0.925537,0.489502,0.552979,64.725189,12.343512,-11.534351
0.939209,0.553955,0.569824,65.603050,24.183207,-13.312977
0.878418,0.572510,0.449707,60.091602,38.671757,-12.351145
0.825195,0.539795,0.512695,57.480915,48.671757,-15.000000
0.750000,0.480713,0.519043,70.129768,48.213741,-21.137405
0.699707,0.500488,0.328857,78.221375,36.916031,-24.091602
0.685059,0.541504,0.264160,70.236641,28.748091,-27.282442
0.649658,0.550293,0.171631,53.893131,28.221375,-28.442749
0.602539,0.524658,0.149902,41.740459,30.244274,-26.290077
0.556885,0.569336,0.152588,27.488550,24.801527,-22.717558
0.507080,0.589111,0.216553,12.839695,15.274809,-18.969465
0.447998,0.458984,0.242920,-9.267176,6.419847,-12.625955
0.425781,0.260498,0.434570,-27.175573,-2.022901,-1.511450
0.465088,0.078369,0.555664,-18.664122,-14.404580,7.526718
0.546875,0.078369,0.564453,12.412213,-21.587786,5.251908
0.629883,0.301514,0.645020,55.366413,-24.580153,2.977099
0.674072,0.587891,0.523193,95.404579,-16.358778,-0.053435
0.670654,0.741211,0.411377,108.488548,-1.732824,-4.068702
0.596191,0.742432,0.266113,99.091606,7.259542,-6.206107
0.561523,0.658447,0.344482,94.496185,6.412214,-4.122138
0.556641,0.574951,0.314209,103.129768,-0.702290,-2.908397
0.567627,0.487549,0.246338,115.740456,-3.938931,-1.473282
0.562744,0.462646,0.173584,123.809158,-5.816794,5.106870
0.542725,0.536377,0.132080,116.404579,-9.755725,17.916031
0.570068,0.606445,0.167969,77.862595,-10.061069,35.412212
0.537109,0.641846,0.616943,71.984734,-12.435115,33.664124
0.551514,0.559814,0.741455,59.167938,-38.251907,43.343510
0.105713,-0.163818,0.382324,45.824429,43.748093,67.206108
1.087891,1.165039,1.300293,128.587784,-64.541985,35.366413
1.005859,1.455811,0.314209,137.717560,-138.229004,37.770992
0.276855,1.795166,1.984314,130.648849,-32.152672,44.000000
0.590332,-0.189697,-1.778809,-5.916030,-0.877863,54.419846
1.111328,1.957275,0.782715,58.358780,-96.351143,35.183205
-0.194092,0.893555,1.984314,15.122137,53.114502,70.648857
-0.146484,0.473145,1.537109,2.435115,62.931297,80.893127
0.288818,1.027344,1.573975,31.000000,-17.931297,70.480919
0.894531,0.673828,-1.082275,-8.022901,-134.160309,61.145039
0.036133,0.216064,-0.206299,-5.603054,2.694656,68.007637
1.102783,0.599854,-0.975098,-13.091603,-114.244278,55.862595
0.364258,0.864258,-0.139648,13.465649,-107.343513,57.396946
0.168213,0.479492,-0.198975,-26.114504,-78.541985,76.549622
0.316650,0.250488,-0.342041,-76.687019,-90.351143,89.167938
0.538818,0.170166,0.155518,-96.213737,-113.175575,94.671753
0.965332,0.191650,1.415039,-12.412213,-122.854965,71.160309
1.346191,0.475586,0.958496,91.244278,-154.053436,24.396946
1.484375,0.550781,0.090820,86.480919,-133.450378,8.206107
1.274902,0.469727,0.011719,64.137405,-2.687023,26.229008
0.952148,0.774658,0.285156,63.954197,47.351147,43.221375
0.961914,0.919434,-0.118652,15.786260,-8.305344,61.175571
0.821533,0.774658,0.259766,-7.213740,-1.206107,60.824429
1.030273,0.720459,0.272217,-36.404579,-59.900764,31.618320
1.060059,0.547363,0.321289,-29.687023,-46.305344,6.511450
1.187988,0.344727,0.120605,-34.236641,-57.198475,-4.877862
1.234619,0.287598,0.178711,-24.427481,-38.778625,-13.022901
1.215820,0.252197,0.173096,-29.877863,8.893129,-11.664123
1.177002,0.288574,0.147217,-26.496183,18.618320,-13.984733
1.113037,0.387207,0.151611,-18.282442,21.458015,-22.557251
1.030273,0.430176,0.048340,-19.122137,25.007633,-27.534351
0.986816,0.441406,-0.021484,-18.847328,15.106871,-27.732824
0.972168,0.442627,-0.035645,-15.854961,12.893129,-19.106871
0.983154,0.495117,-0.008301,-9.793893,21.725191,-15.625955
0.937744,0.551758,-0.048096,-14.793893,35.748093,-13.175572
0.838867,0.527588,-0.067383,-31.755726,42.183205,-11.374045
0.759766,0.476074,-0.015869,-37.374046,35.366413,-7.236641
0.754150,0.444580,0.006592,-30.748091,12.496183,-6.603054
0.806641,0.434326,0.015869,-29.603054,-9.763359,-6.839694
0.895508,0.455078,0.071045,-27.488550,-14.694656,-6.984733
0.944824,0.497559,0.137939,-24.450382,-8.839695,-6.045802
0.962158,0.558594,0.164307,-22.770992,-0.274809,-4.557252
0.948730,0.593506,0.145508,-26.885496,5.824428,-4.969466
0.916992,0.555664,0.153809,-31.274809,5.847328,-6.473282
0.906738,0.471924,0.127686,-27.893129,-1.000000,-7.541985
0.949219,0.462891,0.174805,-22.122137,-4.229008,-7.450382
0.999023,0.547607,0.151367,-17.076336,-3.343511,-9.488549
1.054199,0.657715,0.207764,-19.221375,-0.877863,-11.496183
1.059082,0.568115,0.145264,-22.122137,5.870229,-14.061069
1.030029,0.500488,0.100830,-25.076336,12.832061,-21.221375
0.949219,0.447510,0.086670,-20.854961,9.664123,-25.961832
0.937256,0.520508,0.076660,-19.145039,-0.190840,-26.435114
0.969727,0.607178,0.124023,-18.786259,-7.832061,-29.687023
1.024902,0.480713,-0.153564,-44.763359,3.412214,-23.473282
1.026855,0.328857,-0.295654,-59.541985,25.938931,-22.732824
1.460938,0.982178,0.165283,-41.251907,-49.229008,-40.351147
0.804443,-0.076904,-1.423096,-85.404579,33.129772,-10.977099
0.913818,-0.283691,-1.137695,-73.076332,92.503815,-12.412213
1.826172,0.305420,-2.000000,-76.290077,-25.832062,-23.419847
0.378174,1.447754,1.984314,24.412214,-17.770992,-26.984734
1.078613,-0.453125,-2.000000,-63.625954,56.679390,-5.847328
1.754639,1.024658,-1.413330,-33.175571,-75.679390,-34.870228
1.518799,1.129883,-0.700439,-28.534351,-76.335876,-35.427483
1.215576,0.359863,-1.534424,-60.969467,-18.877863,-20.587786
0.440430,0.138672,0.500488,-19.106871,95.312981,-9.404580
1.382080,0.931641,0.422363,-7.595420,-38.412212,-25.290077
0.154785,0.362061,0.492920,-2.190840,54.564884,-10.526717
0.912842,0.221924,-0.323486,-51.595421,43.251907,-9.030535
1.044678,0.472168,-0.364746,-50.183205,1.870229,-15.816793
0.960205,0.530273,-0.111328,-38.290077,-13.541985,-15.213740
0.921143,0.446289,-0.083496,-30.381680,-15.732824,-13.129771
0.868652,0.290283,-0.176025,-31.251909,0.816794,-9.305344
0.698975,0.154297,-0.035889,-25.106871,36.877861,-3.343511
0.547119,0.282227,0.313477,5.809160,46.175571,-4.625954
0.667480,0.382080,0.127441,19.984734,-0.488550,-8.633588
0.570801,0.100830,-0.183838,12.778625,22.725191,5.419847
0.494629,0.279297,0.222412,44.648853,18.259542,1.511450
0.609619,0.348389,-0.206299,24.870230,-2.312977,9.587787
0.548340,0.419434,0.090332,57.854961,4.671756,3.198473
0.589111,0.356934,-0.046875,45.442749,6.908397,8.412213
0.611328,0.412598,0.111816,67.954201,-10.419847,2.885496
0.608643,0.469727,0.042480,62.419846,6.816794,11.022901
0.643799,0.529297,-0.065430,44.641220,-2.435115,16.183207
0.695068,0.653320,-0.059814,23.480917,-8.778625,14.946565
0.699951,0.703613,0.000732,-1.992366,-4.870229,19.786259
0.735596,0.729248,-0.011963,-18.458015,-10.320611,25.671755
0.786621,0.666504,0.021729,-25.145039,-17.229008,20.801527
0.812012,0.532471,0.075684,-22.251909,-23.229008,14.778625
0.844971,0.455078,0.108398,-9.748092,-23.786259,14.068703
0.876221,0.458984,0.133301,7.473282,-18.717558,15.091603
0.892090,0.520996,0.085693,15.572519,-12.610687,14.435115
0.895752,0.618896,0.125000,6.671756,-3.793893,15.511451
0.876709,0.714600,0.142578,-1.022901,2.679389,16.152672
0.854004,0.752930,0.134033,-12.755725,0.419847,17.404581
0.855469,0.713135,0.166260,-23.862595,-3.305344,18.183207
0.875244,0.609863,0.223633,-27.435114,-8.732824,17.045801
0.906250,0.533203,0.247559,-18.839695,-13.396947,14.770992
0.945312,0.510010,0.254639,-8.213740,-12.473283,11.740458
0.954102,0.563232,0.232910,-8.114504,-7.045802,10.877863
0.964355,0.670898,0.209717,-17.351145,-1.045802,15.450381
0.960205,0.695068,0.188721,-20.473282,1.236641,12.977099
0.937256,0.648926,0.172119,-27.893129,-2.595420,10.603053
0.947510,0.570312,0.207520,-21.198473,-5.893130,12.244275
0.957520,0.557129,0.168945,-14.969465,-5.618320,10.503817
0.960449,0.550537,0.182861,-9.748092,-4.549618,10.145039
0.953613,0.545166,0.173340,-6.236641,-4.007634,8.656488
0.940186,0.516357,0.189209,-4.488550,-3.793893,8.374045
0.909668,0.473633,0.160645,-6.854962,1.122137,7.297710
0.933105,0.607178,0.321533,14.541985,-16.488550,-3.801527
1.071777,0.762451,0.237549,16.946566,-44.442749,-8.290076
0.321289,0.425049,0.911621,17.068703,35.229008,8.541985
1.141113,1.134766,1.596924,26.793894,-55.496181,-12.534351
0.938232,1.243408,1.194824,14.809160,-107.755722,-11.587787
0.006348,0.743652,1.984314,45.488548,-8.732824,-8.480916
1.376221,-0.473145,-2.000000,-44.793892,58.977100,7.679389
0.788086,1.538330,1.984314,31.877863,-86.244278,-21.885496
0.019287,0.151855,1.935059,36.885498,46.755726,1.961832
0.204346,0.062744,1.293457,34.732826,62.160305,6.755725
0.541748,0.800537,1.864014,46.343510,-16.839695,-6.343512
1.177246,0.728760,-0.442627,-17.061069,-67.129768,-5.442748
0.272461,0.165283,0.209717,19.282442,52.786259,0.396947
1.449463,0.588623,-0.288818,-26.106871,-34.770992,-2.778626
0.754150,0.788086,0.539795,18.519083,-42.229008,-11.366412
0.513184,0.512939,0.600586,16.511450,-0.717557,0.267176
0.558350,0.379883,0.390625,6.488550,15.549619,5.938931
0.608643,0.416260,0.363037,9.122137,13.465649,6.175572
0.683105,0.560303,0.407471,19.145039,-5.381680,1.832061
0.850830,0.661377,0.288818,15.931297,-35.167938,-2.137405
0.949707,0.493164,-0.032471,-6.564886,-28.977098,3.854962
0.788086,0.323730,0.102539,-8.335877,14.412213,11.328244
0.855225,0.552490,0.292969,7.625954,-17.473282,0.801527
0.895752,0.461670,-0.116211,-9.160305,-10.916031,6.251908
0.834473,0.568848,0.260742,10.824428,-2.541985,0.427481
0.868652,0.456055,0.005127,-13.145039,-3.526718,9.442748
0.856934,0.564941,0.160889,6.236641,-7.496183,-1.167939
0.818604,0.456787,0.036865,-6.465649,5.549618,8.290076
0.910156,0.485596,0.142090,-2.503817,-18.320610,2.068702
0.914795,0.473633,0.161865,4.320611,-4.854962,-0.732824
0.915527,0.459961,0.133545,4.038168,-1.213740,1.129771
0.938232,0.493408,0.165771,6.740458,-2.160305,1.946565
0.971924,0.525879,0.160645,13.022901,-0.839695,-4.335878
0.949463,0.534668,0.151611,14.679389,3.030534,-8.015267
0.913818,0.529541,0.106201,11.229008,6.099236,-3.870229
0.907227,0.536621,0.109131,6.206107,6.671756,-0.396947
0.911865,0.531006,0.121582,5.251908,2.854962,-2.129771
0.912354,0.492432,0.168213,8.236641,2.694656,-5.076336
0.894775,0.458008,0.125488,12.267176,1.480916,-5.083970
0.878662,0.467773,0.130127,16.198473,3.099237,-2.450382
0.872803,0.485840,0.164551,21.015266,5.381680,-0.251908
0.857666,0.510986,0.128418,23.541985,2.969466,0.015267
0.859131,0.552246,0.137451,16.572519,-2.000000,2.679389
0.857910,0.585937,0.115234,6.572519,-3.183206,4.801527
0.850342,0.566895,0.129395,-3.885496,-1.885496,8.564885
0.838623,0.518066,0.115479,-9.786260,-1.419847,12.343512
0.832520,0.475586,0.108154,-9.832061,-1.274809,14.580153
0.833252,0.464600,0.112793,-2.946565,-1.717557,14.854961
0.828125,0.473389,0.092041,3.587786,-1.992366,13.450381
0.808350,0.470703,0.059082,5.473282,-0.770992,14.274809
0.788574,0.459717,0.017334,3.770992,-0.152672,17.213741
0.778076,0.461182,0.020508,3.175573,-1.267176,20.969465
0.763428,0.454590,-0.010742,1.732824,-4.816794,24.091602
0.753174,0.432129,-0.025635,-2.167939,-8.312977,27.717558
0.769775,0.366943,-0.105225,-4.343512,-16.488550,29.854961
0.588867,0.187012,0.008789,-0.526718,16.267176,42.664124
0.417480,0.211426,0.292236,15.503817,24.206106,46.229008
1.027832,0.032959,-1.125488,-14.000000,-28.793894,46.061069
0.042480,0.300537,0.895508,34.725189,49.900764,52.526718
0.258057,0.657227,1.984314,48.129772,57.587788,54.610687
0.026367,-0.477051,0.116699,-9.938931,59.618320,62.748093
1.915283,1.043701,-2.000000,34.763359,-133.587784,17.083969
-0.049316,0.186523,1.984314,22.625954,80.916031,48.290077
0.937256,-0.601562,-1.728760,-21.198473,-7.610687,32.916031
1.118896,-0.376221,-2.000000,-30.908398,-29.083969,32.129772
0.649902,-0.345703,-0.590088,-23.648855,54.450382,42.740459
0.905273,0.736572,1.597168,44.267174,30.305344,29.702290
1.093262,0.103516,-1.191895,-2.488550,-44.603054,23.030535
0.892090,0.697998,0.672119,51.541985,-3.984733,3.458015
0.592529,0.056641,-0.049561,-6.770992,32.015266,25.022902
1.060547,0.040283,-0.494385,-34.687023,13.381680,20.648855
1.185059,0.134521,-0.396973,-31.229008,-0.816794,14.465649
1.109375,0.129150,-0.260742,-25.328245,9.984733,11.625955
0.926025,0.062744,-0.136963,-21.137405,32.977100,15.564885
0.749756,0.205566,0.119873,-5.206107,45.351147,16.580153
0.804443,0.544678,0.169189,3.068702,1.396947,9.160305
0.975830,0.520264,-0.168457,-15.633588,-37.755726,8.267176
0.847412,0.262207,-0.003906,-20.725191,14.480916,14.786260
0.971680,0.330322,0.186035,-5.160306,-10.946565,4.251908
0.964111,0.142090,-0.096924,-15.335877,20.412214,11.221375
0.972656,0.243652,0.232666,27.312977,7.908397,-2.374046
0.902344,0.291504,0.109863,20.519083,36.534351,1.679389
0.934082,0.495850,0.096191,16.068703,-1.633588,-2.755725
0.943848,0.590820,0.035156,-4.938931,5.526718,-3.114504
0.963379,0.466797,0.053955,-21.007633,6.778626,0.167939
0.990967,0.346436,0.175049,-11.702291,22.213741,-1.572519
0.908936,0.288330,0.116211,15.038168,36.488548,-0.145038
0.852051,0.341797,0.153076,25.328245,32.213741,0.732824
0.819092,0.429199,0.145752,19.938931,20.503817,-2.473282
0.852295,0.488281,0.108643,2.748092,-0.748092,-3.603053
0.933594,0.401611,0.132324,-5.366412,-4.297710,-8.893129
1.007080,0.252930,0.033936,-1.465649,-8.595420,-9.068703
1.079590,0.247314,0.111084,14.916031,1.328244,-8.519084
1.081299,0.295166,0.097412,33.122139,23.908398,-9.618320
1.002197,0.344727,0.064697,42.564884,28.809160,-10.679389
0.926025,0.403564,0.023682,40.580154,23.717558,-7.931298
0.922607,0.448975,0.024414,40.679390,7.732824,-8.091603
0.947754,0.459229,0.031250,39.687023,-6.625954,-14.862596
0.955811,0.460693,0.009033,37.603054,-12.557252,-17.091602
0.958740,0.433838,-0.059570,26.213741,-8.213740,-14.000000
0.968018,0.354492,-0.089600,12.641221,-4.091603,-10.335877
0.959717,0.310791,-0.068848,12.412213,1.832061,-8.183207
0.937500,0.299072,-0.027344,23.595419,8.641221,-9.137404
0.902100,0.324219,-0.030518,32.786259,7.236641,-10.427481
0.900635,0.397949,-0.042236,29.137405,1.679389,-9.732824
0.929687,0.435303,-0.084717,13.389313,-6.358778,-9.068703
0.956055,0.415771,-0.030762,-1.908397,-5.145038,-10.992367
0.933350,0.365234,0.030518,-4.038168,2.709924,-8.519084
0.894775,0.355469,0.035645,-1.335878,8.740458,-5.290076
0.834229,0.379639,0.097900,3.190840,11.977099,-5.190840
0.982666,0.447998,-0.106689,-0.175573,-29.984734,-8.900764
1.192383,0.459229,-0.375977,-9.106871,-37.557251,-11.236641
0.579834,0.722168,1.022705,34.160305,-9.167939,-12.900764
1.597656,0.646729,-0.655762,-32.175571,-83.274811,-12.908397
1.434570,0.652832,-2.000000,-51.076336,-93.435112,-18.687023
1.345947,1.537354,1.100342,12.549619,-94.419846,-29.572519
0.132324,-0.529053,0.896973,-29.793894,93.580154,5.908397
1.769531,1.136230,-1.225098,-24.122137,-113.389313,-28.000000
0.585937,1.002197,1.984314,20.320610,-30.931297,-13.877863
0.518555,0.666016,1.984314,23.954199,2.717557,-10.839695
1.035889,0.851807,1.126221,21.717558,-50.740459,-20.809160
1.028076,0.056152,-1.441162,-38.435116,-30.709923,-16.312977
0.558594,0.445068,1.022461,38.229008,62.519085,-26.587786
1.002441,0.062256,-0.754639,-19.618320,18.610687,-21.007633
0.990234,0.612549,0.052734,21.549618,-12.938931,-43.816795
0.500244,0.573975,0.493408,31.160305,13.183207,-42.000000
0.351074,0.448730,0.454102,18.908398,38.549618,-39.900764
0.337402,0.414307,0.428223,9.328244,38.389313,-40.038166
0.408447,0.427490,0.273193,6.290076,18.977098,-43.862595
0.485596,0.339111,-0.078857,-12.145039,3.427481,-41.618320
0.414551,0.061768,-0.232178,-33.984734,34.511452,-29.541985
0.202881,0.035400,0.136963,-30.213741,68.648857,-21.801527
0.254639,0.186523,-0.073975,-39.404579,28.664122,-18.595419
0.112305,-0.088135,-0.209229,-52.251907,67.503815,3.274809
-0.027832,-0.037598,0.144531,-38.847328,41.931297,16.732824
-0.095947,-0.118896,-0.139404,-59.114502,50.015266,40.358780
-0.030762,0.082520,0.023437,-47.595421,-21.465649,52.083969
0.095947,0.213135,-0.064209,-55.022900,-32.320610,58.641220
0.352051,0.370605,-0.058350,-59.786259,-85.488548,61.740459
0.581787,0.582031,-0.002441,-63.145039,-97.603050,67.419846
0.865234,0.914062,0.164551,-142.641220,-90.984734,129.244278
1.325928,1.195801,0.410400,-168.297714,-78.824425,134.007629
1.685059,0.836670,0.414307,-169.358780,-101.274811,127.862595
1.984314,0.841064,0.604980,-159.061066,-78.824425,122.137405
1.984314,0.969238,0.648682,-163.152664,80.229004,39.725189
1.984314,0.642822,0.322021,-121.656487,83.557251,26.450382
1.984314,0.447510,0.204590,-60.152672,5.900764,31.366413
1.984314,0.468994,0.266113,-23.938931,18.595419,13.106871
1.925781,0.318115,0.205322,-0.671756,30.648855,-11.969465
1.498047,0.152100,0.224121,16.908398,0.595420,-25.748091
1.435303,0.200195,0.305908,31.145039,-23.106871,-33.732826
1.420410,0.343506,0.419678,49.374046,-39.458015,-40.748093
1.452881,0.317383,0.412842,66.687019,-53.763359,-44.641220
1.499512,0.276855,0.448730,87.526718,-63.916031,-52.083969
1.502197,0.261475,0.436523,107.916031,-75.916031,-54.740459
1.507568,0.265137,0.455322,135.343506,-73.801529,-46.519085
1.476807,0.337158,0.366699,148.335876,-58.763359,-31.969465
1.379639,0.448730,0.225830,146.793900,-33.938931,-15.312977
1.283447,0.622070,0.084473,104.137405,21.503817,-3.396947
1.154297,0.622803,-0.046143,58.358780,48.251907,-1.076336
1.010742,0.576172,-0.110840,38.068703,51.282444,-1.763359
0.853760,0.487061,-0.224121,31.816793,51.076336,-4.320611
0.773193,0.461182,-0.226562,19.488550,35.564884,-4.053435
0.709473,0.468018,-0.260742,8.816793,12.244275,-3.870229
0.689453,0.428467,-0.252686,3.488550,3.244275,-4.305344
0.711914,0.573730,0.108643,23.534351,-18.015266,-17.832062
0.656982,0.668945,0.291992,32.435116,-35.564884,-20.519083
0.157959,-0.096191,-0.159424,25.809160,60.061069,0.519084
0.653809,0.911377,1.678711,62.320610,-8.679389,-19.717558
0.302002,0.939209,1.819580,46.938931,-60.389313,-9.404580
-0.529297,-0.077148,1.984314,30.717558,76.557251,2.679389
1.418213,-0.106689,-2.000000,-55.251907,-14.603053,-8.648855
-0.246338,0.480713,1.984314,39.938931,-4.335878,-10.770992
0.052002,-0.806641,-0.241211,1.557252,111.114502,7.198473
0.357178,-0.698730,-0.970459,0.709924,107.610687,4.458015
0.081055,-0.311035,0.704346,44.122139,108.793892,-0.526718
0.551514,0.595459,1.441406,57.038166,-30.832062,-13.259542
0.223145,-0.334473,-1.289795,-20.687023,13.335877,8.900764
0.737549,0.663574,0.898437,32.549618,-40.748093,-16.938931
0.010010,0.151367,0.362061,18.488550,23.282442,4.687023
0.459717,-0.028809,-0.142090,-14.885496,44.480915,5.221374
0.574463,-0.067383,-0.244629,-20.908398,37.793892,2.748092
0.483887,-0.141357,-0.130859,-21.366413,44.679390,9.816793
0.337402,-0.144775,0.102539,-17.488550,52.694656,18.442749
0.276611,0.053711,0.441650,1.465649,38.335876,17.137405
0.399170,0.310791,0.353516,8.541985,-10.099236,9.931297
0.473633,0.187500,-0.121826,-15.015267,-7.106870,16.274809
0.270996,0.081299,0.182861,-10.732824,44.374046,18.625954
0.348877,0.221191,0.098145,-17.961832,9.175572,14.145039
0.199951,-0.012695,-0.243896,-34.290077,50.641220,20.496183
0.218506,0.036865,-0.036865,-31.511450,2.419847,26.206106
0.167480,0.062988,-0.085937,-25.625954,25.603054,39.358780
0.316650,0.257568,-0.184570,-26.236641,-28.946566,39.366413
0.433838,0.474365,-0.181885,-22.038168,-40.335876,23.000000
0.500977,0.588867,-0.378418,-51.206108,-46.671757,16.099237
0.675049,0.672852,-0.404785,-79.251907,-77.954201,17.244274
0.950195,0.701660,-0.430908,-94.160309,-107.251907,16.305344
1.289551,0.766846,-0.346191,-92.984734,-145.305344,17.572519
1.778809,1.250488,-0.171387,-161.290070,-177.305344,107.221375
1.984314,1.578857,0.409912,-203.671753,54.015266,140.343506
1.984314,0.618652,0.258789,-174.557251,201.694656,58.954197
1.694824,0.119629,0.102783,-107.488548,98.832062,62.053436
1.984314,0.144775,0.612061,-44.992367,-28.656488,45.511452
1.984314,-0.133057,0.875488,-19.480917,35.557251,5.824428
1.676270,-0.323486,0.592529,14.503817,24.175573,-38.755726
1.425537,-0.015381,0.557861,41.099236,-33.374046,-45.877861
1.498291,0.203369,0.551758,65.419846,-42.938931,-52.748093
1.517822,0.330078,0.401367,77.251907,-43.473282,-62.175571
1.464844,0.363770,0.300293,91.458015,-49.083969,-71.900764
1.419678,0.444580,0.183594,103.190842,-56.320610,-77.351143
1.406494,0.458252,0.079346,103.160309,-61.175571,-72.748093
1.406006,0.535645,0.125488,88.770996,-40.923664,-53.137405
1.346680,0.538574,0.038086,62.839695,-1.641221,-27.290077
1.247559,0.404297,-0.069824,29.816793,34.992367,-15.717557
1.059326,0.307617,-0.109131,20.259542,49.122139,-16.007633
0.871582,0.353027,-0.118408,35.007633,41.564884,-18.603054
0.749512,0.491943,-0.157959,46.984734,17.633587,-19.198473
0.702637,0.566406,-0.127930,42.312977,0.175573,-20.618320
0.694336,0.547607,-0.104980,26.969465,-6.625954,-22.396946
0.716553,0.462646,-0.064697,12.580153,-12.847328,-23.496183
0.598389,0.162354,-0.181396,-16.030535,15.580153,-9.839695
0.411621,0.002197,0.130127,-15.045801,46.671757,-5.511450
1.013428,-0.127686,-0.997559,-37.160305,-23.893129,-12.496183
-0.084717,-0.046143,0.880127,13.778625,68.893127,-2.618321
0.221191,0.362793,1.984314,50.488548,77.931297,-3.053435
-0.226807,-0.566406,0.983643,4.320611,91.167938,10.816793
1.563721,0.325195,-2.000000,17.412214,-107.030533,-18.862595
-0.333740,0.390381,1.984314,15.122137,98.167938,14.526717
0.152344,-0.740723,-0.506592,-48.022900,43.175571,5.374046
0.396484,-0.663574,-1.076904,-55.908398,17.152672,2.358779
0.103516,-0.325439,0.631104,-21.389313,84.244278,9.061069
0.656738,0.613037,1.314209,47.091602,3.618321,-2.839695
0.218018,-0.353516,-1.219482,-16.244274,-14.129771,13.641221
0.808838,0.652588,0.676270,51.519085,-11.572519,-12.389313
-0.065186,0.200439,0.413330,26.419847,40.229008,9.480916
0.238525,-0.057129,-0.146240,-14.335877,41.885498,12.167939
0.525146,-0.089600,-0.428955,-28.305344,24.389313,15.893129
0.501221,-0.117920,-0.332031,-26.022902,28.572519,19.068703
0.375000,-0.103516,-0.144775,-13.809160,47.251907,17.702290
0.242676,0.102539,0.148193,9.503817,40.183205,13.114504
0.349854,0.357178,0.069092,14.473283,-7.297710,10.847328
0.436523,0.220947,-0.334473,-7.442748,-2.488550,18.343512
0.320801,0.168457,0.088379,0.916031,19.801527,15.435115
0.520264,0.305420,-0.067139,-15.709924,-30.679390,8.755725
0.406006,0.157715,-0.208496,-20.679390,15.389313,10.961832
0.466797,0.262451,-0.067871,-21.404581,-18.076336,15.167939
0.363770,0.281738,-0.105225,-17.488550,25.656488,25.923664
0.381592,0.343262,-0.293457,-40.190838,7.839694,35.053436
0.389648,0.432617,-0.156982,-36.916031,-5.641222,28.992367
0.425293,0.457764,-0.255371,-45.877861,-13.954199,29.778625
0.620850,0.561768,-0.247559,-46.816795,-58.755726,30.839695
0.944824,0.704590,-0.188232,-40.885498,-98.183205,25.687023
1.446777,1.191406,-0.253174,-80.091606,-132.496185,41.335876
1.984314,1.638428,0.367920,-207.595413,52.244274,115.564888
1.984314,0.674316,0.182861,-187.274811,187.122131,90.251907
1.685791,0.010254,-0.020752,-128.282440,116.091606,83.129768
1.984314,0.187256,0.504883,-67.648857,25.076336,41.366413
1.984314,0.137451,0.633057,-42.984734,72.290077,7.274809
1.891602,-0.090088,0.569824,-5.908397,7.717557,17.335878
1.918945,-0.295410,0.626709,20.389313,-26.748091,-8.755725
1.645264,0.006348,0.562256,44.732826,-35.106869,-32.282444
1.530518,0.182861,0.480957,67.061066,-48.419846,-33.015266
1.539551,0.349609,0.264893,81.435112,-72.442749,-36.198475
1.599609,0.413818,0.159668,85.992363,-100.572517,-57.175571
1.590576,0.351807,0.067139,83.679390,-110.862595,-80.732826
1.541016,0.276611,-0.058838,73.038170,-104.969467,-93.137405
1.471191,0.340332,-0.079834,62.702290,-78.091606,-94.511452
1.306396,0.258057,-0.125000,43.175571,-39.244274,-62.625954
1.187744,0.261475,-0.108154,34.030533,11.541985,-16.847328
1.069580,0.360352,-0.114746,39.259541,50.145039,3.152672
0.874512,0.461182,-0.179687,42.152672,64.328247,0.328244
0.673096,0.551270,-0.208740,33.022900,54.832062,1.786260
0.550293,0.594971,-0.229980,15.923664,40.145039,6.221374
0.508789,0.534180,-0.287354,-6.534351,15.656488,7.885496
0.495850,0.361084,-0.203369,-16.358778,-0.763359,3.282443
0.658936,0.425537,-0.028076,3.000000,-42.503819,-13.641221
0.748535,0.459717,-0.069336,11.732824,-57.526718,-17.000000
-0.061035,0.038818,0.697510,21.549618,50.206108,4.335878
1.039063,0.767578,0.909668,36.824429,-50.290077,-11.312977
0.674072,0.764160,-0.296387,23.465649,-85.847328,-6.763359
-0.138916,0.859863,1.984314,43.618320,24.671755,7.786260
0.336670,-0.957031,-1.908447,-58.541985,56.694656,17.358778
0.434570,1.176514,1.512451,36.748093,-41.366413,-4.488550
-0.590576,-0.108398,1.984314,16.725191,113.755722,19.664122
-0.415039,-0.378174,1.241943,18.832062,128.748093,20.183207
-0.227051,0.266113,1.965820,55.015266,79.335876,14.732824
0.511719,0.597168,0.093018,35.992367,-84.740456,-0.274809
-0.259766,-0.269775,-0.653076,-25.931297,16.251909,12.198473
1.038574,0.458984,0.116699,-15.786260,-77.061066,-13.511451
0.007568,0.067383,0.557861,2.984733,-12.572519,7.770992
0.171387,-0.270264,0.317383,-3.541985,32.366413,21.641222
0.329590,-0.263428,0.033203,6.389313,30.954199,22.022902
0.353516,-0.094238,0.008545,16.335878,28.641222,21.984734
0.275879,0.105957,0.227295,16.984734,30.969465,21.725191
0.295410,0.353760,0.344482,8.068703,7.366412,19.610687
0.472168,0.363770,0.062988,-18.541985,-37.664124,17.893129
0.511963,0.019531,-0.280029,-51.885498,-20.740458,24.114504
0.387451,0.023926,0.152100,-27.557251,5.015267,24.839695
0.590332,0.293701,-0.207275,-26.076336,-53.572517,19.496183
0.609375,0.426758,-0.268799,-24.595419,-42.030533,25.908398
1.050537,0.979736,-0.176514,-27.190840,-137.106873,44.496181
1.984314,1.290039,0.047119,-100.603050,55.893131,85.496185
1.984314,1.188965,-0.378174,-188.458008,235.549622,96.801529
1.794678,0.712158,-0.659912,-110.007637,144.847336,56.702290
1.984314,0.827881,-0.309326,-90.480919,72.732826,-8.236641
1.984314,0.297119,0.096191,-61.259541,66.954201,-15.465649
1.614990,0.244873,0.690430,-26.106871,46.587788,8.580153
1.145020,-0.037598,0.695068,-13.442748,22.595419,-0.534351
1.107910,-0.189209,0.546387,-1.610687,-17.442749,3.022901
1.319824,-0.217285,0.418213,14.717557,-32.572517,-2.992366
1.300781,0.088867,0.403320,37.343510,-46.595421,-11.618320
1.337402,0.379150,0.495605,49.480915,-62.633587,-5.465649
1.457764,0.460205,0.441162,56.679390,-73.358780,-6.946565
1.462891,0.398193,0.310547,62.267174,-82.748093,-18.328245
1.453125,0.378662,0.079590,74.389313,-100.458015,-35.778625
1.471436,0.375000,0.071777,83.564888,-102.175575,-52.679390
1.442139,0.414551,-0.046875,92.916031,-84.862595,-65.549622
1.424561,0.452393,-0.008057,98.419846,-62.442749,-68.992363
1.394287,0.523193,-0.103027,97.801529,-37.511452,-64.160309
1.331787,0.448242,-0.146484,74.969467,-14.740458,-36.053436
1.303955,0.390869,-0.174805,50.938931,20.862595,-12.824428
1.211426,0.345459,-0.211670,44.068703,46.206108,-12.297709
1.038086,0.311279,-0.218262,34.328243,56.198475,-9.687023
0.883301,0.339111,-0.276367,21.488550,59.045803,-2.595420
0.747314,0.388672,-0.410156,4.748092,56.603054,1.198473
0.636230,0.385742,-0.366455,-10.648855,51.732826,-2.465649
0.532227,0.342773,-0.314697,-14.030535,42.374046,-5.000000
0.468750,0.246338,-0.277100,-9.038168,31.267176,-4.671756
0.461426,0.161621,-0.204834,3.801527,17.900763,-5.557252
0.441162,0.115479,-0.136719,8.656488,11.595420,-7.572519
0.477051,0.352051,0.232422,21.732824,-7.870229,-14.366412
0.500244,0.532227,0.349121,13.770992,-36.206108,-10.549619
-0.061035,-0.216309,-0.019531,-5.488550,55.702290,8.259542
0.774414,0.802734,1.717529,22.679390,-34.961834,-13.534351
0.424072,0.829834,1.026611,19.068703,-85.916031,-10.358779
-0.392578,0.272461,1.984314,43.000000,39.824429,2.916031
1.133057,-0.582031,-2.000000,-37.236641,13.167939,-1.091603
0.059814,0.894043,1.984314,54.862595,-27.053434,-9.870229
-0.245850,-0.614014,1.096924,8.977099,123.007637,17.770992
0.013672,-0.697266,0.120605,-8.099236,128.511444,21.656488
-0.044678,-0.133057,1.379395,21.213741,94.106873,16.572519
0.610840,0.518799,0.796143,9.862596,-63.213741,3.244275
0.035889,-0.477295,-1.081787,-34.160305,31.450382,19.580153
0.972168,0.592773,0.756836,21.412214,-45.870228,-8.053435
-0.036133,0.230957,0.551270,27.068703,18.152672,6.641222
0.279541,-0.042725,0.013916,-17.106871,45.671757,16.801527
0.457520,-0.098877,-0.300049,-37.557251,40.488548,20.977098
0.458496,-0.111328,-0.248779,-37.793892,45.679390,22.954199
0.336182,-0.020508,-0.085937,-23.763359,49.000000,18.969465
0.298584,0.243408,0.178955,1.900763,21.251909,15.320611
0.518066,0.502441,0.053711,5.541985,-42.145039,11.106871
0.677246,0.386963,-0.271729,-32.541985,-40.312977,13.274809
0.569580,0.293457,0.129150,-48.496181,4.106870,15.183207
0.712402,0.341064,0.034912,-71.862595,-24.473282,19.335878
0.601318,0.184326,-0.235107,-77.076332,19.946566,38.526718
0.817383,0.424072,-0.257813,-60.267174,-48.618320,37.511452
1.058105,0.724121,-0.147217,-37.152672,-63.549618,27.549618
1.984314,1.330811,0.155273,-125.702293,-57.816795,103.015266
1.984314,1.215576,0.193359,-170.885498,180.786255,64.244278
1.754395,0.258789,0.133301,-124.213737,151.290070,64.702293
1.984314,0.186768,0.135742,-66.900764,17.526718,42.000000
1.984314,-0.068604,0.558594,-23.603054,27.358778,6.412214
1.725098,-0.207764,0.649658,7.656488,14.839695,-7.297710
1.475830,0.027588,0.550537,36.114502,-24.732824,-22.969465
1.423096,0.186523,0.510742,53.053436,-39.992367,-29.717558
1.406006,0.224854,0.332764,68.374046,-58.923664,-30.641222
1.521240,0.314697,0.201172,81.877861,-75.351143,-42.404579
1.630371,0.335449,0.062988,84.603050,-85.946564,-65.809158
1.668457,0.302002,0.051270,82.404579,-84.900764,-82.068703
1.612793,0.304443,0.039307,76.755722,-69.366409,-90.022903
1.462158,0.341553,0.000000,55.267174,-45.312977,-66.435112
1.375732,0.423096,-0.065918,27.435114,3.435115,-23.290077
1.241455,0.509521,-0.126221,17.587786,40.870228,-6.610687
1.016357,0.562256,-0.237549,16.114504,51.534351,-7.954198
0.834961,0.559814,-0.231445,22.404581,49.938931,-6.259542
0.727539,0.566406,-0.201660,28.488550,38.396946,-2.778626
0.671875,0.548340,-0.203125,19.862595,24.229008,-3.000000
0.645752,0.459229,-0.209473,1.732824,7.595420,-6.038168
0.651611,0.282227,-0.197754,-9.969465,-6.030534,-8.969465
0.671631,0.149658,-0.141846,-12.259542,-12.061069,-13.954199
0.682373,0.085205,-0.069580,-11.908397,-8.000000,-11.053435
0.670898,0.081543,-0.057617,-6.648855,4.427481,-5.236641
0.616211,0.088867,-0.037598,-2.366412,17.534351,0.320611
0.539062,0.123535,0.042480,2.389313,24.557251,1.755725
0.477051,0.164551,0.059082,3.885496,16.534351,-3.229008
0.231934,0.008545,0.104248,-12.175572,45.717556,4.564886
0.052490,-0.012207,0.480713,-10.633588,51.587788,6.473282
0.657959,-0.235107,-1.088379,-45.725189,-32.480915,1.709924
-0.103516,-0.002686,1.222412,-7.427481,80.717560,9.969465
-0.016357,0.282715,1.984314,17.503817,96.221375,12.931297
-0.194092,-0.679932,0.747314,-34.358780,86.763359,17.282442
1.432617,0.418213,-2.000000,14.305344,-93.038170,-12.213740
-0.023682,-0.939209,-0.558105,-19.778625,121.832062,25.740458
1.015869,-0.273682,-2.000000,-61.832062,20.618320,12.938931
0.928467,-0.102783,-2.000000,-56.755726,-2.099237,10.473283
0.410645,-0.545410,-1.467041,-34.129772,81.343513,16.694656
0.178467,0.220947,1.363281,40.083969,47.305344,5.381680
0.694824,0.000000,-0.916260,-27.427481,-27.541985,17.801527
0.116455,0.377930,0.820557,36.526718,7.549618,-1.473282
0.083984,-0.156250,-0.186768,0.671756,41.274811,17.450382
0.535156,-0.063965,-0.562012,-24.832062,22.854961,15.809160
0.632324,0.059326,-0.533447,-27.694656,5.000000,22.061069
0.621338,0.082520,-0.439453,-29.419847,15.893129,25.015266
0.491455,0.002441,-0.322266,-27.793894,31.480917,19.374046
0.349854,-0.002441,0.005615,-10.396947,29.809160,16.282442
0.472656,0.283691,0.091797,7.160306,-25.664122,11.259542
0.720947,0.404053,-0.323730,-9.610687,-57.824429,14.038168
0.776367,0.534424,0.066650,-12.992367,-38.160305,13.106871
1.177002,0.955566,0.219727,-31.916031,-94.068703,5.946565
1.442139,0.846680,0.084229,-92.816795,-39.442749,60.343510
1.984314,1.395752,0.543213,-149.404587,75.404579,118.572517
1.984314,0.620361,0.492920,-142.206100,177.320618,79.267174
1.918945,0.400146,0.271729,-95.885498,99.931297,70.648857
1.984314,0.547607,0.500000,-52.045803,35.839695,16.702290
1.984314,0.233643,0.355469,-44.053436,41.587788,-13.129771
1.911133,-0.095459,0.077148,-6.961832,-5.305344,-5.854962
1.812500,-0.201904,0.050781,22.236641,-15.045801,-12.557252
1.678711,-0.020508,0.000488,34.595421,-27.083969,-28.351145
1.576904,0.028076,0.012207,41.610687,-58.541985,-44.137405
1.649414,0.062744,-0.004395,49.091602,-75.076332,-55.091602
1.728271,0.031250,-0.011475,59.770992,-84.977097,-72.000000
1.723633,0.099854,0.016846,76.671753,-76.702293,-79.038170
1.620361,0.257080,0.008545,91.549622,-59.694656,-79.160309
1.483887,0.463623,0.041260,95.175575,-32.885498,-68.007637
1.315430,0.534424,0.018799,83.801529,-1.206107,-51.977100
1.145020,0.515381,-0.017090,52.893131,21.625954,-29.770992
1.018066,0.550537,-0.013428,32.824429,39.244274,-10.114504
0.883789,0.576904,-0.095703,26.526718,41.862595,-3.473282
0.776123,0.535889,-0.152344,6.923664,34.450382,-0.183206
0.720703,0.450439,-0.141846,-3.152672,18.862595,0.366412
0.704834,0.355225,-0.099121,-4.687023,2.213740,-3.534351
0.701416,0.280273,-0.100830,-0.221374,-3.083969,-8.717557
0.678223,0.229736,-0.098877,2.625954,-1.152672,-9.916031
0.645264,0.210937,-0.044189,3.954198,4.137404,-5.572519
0.608887,0.213623,-0.020752,5.236641,11.312977,-1.564885
0.568848,0.227051,-0.031982,5.587786,13.847328,0.984733
0.545898,0.241943,0.003174,7.030534,10.541985,1.557252
0.523926,0.229004,0.022949,7.351145,6.244275,-0.641221
0.507812,0.186035,0.073486,6.473282,5.099236,-2.091603
0.489746,0.127930,0.161865,7.335878,6.190840,-5.717557
0.443115,-0.100098,-0.075439,-12.190840,14.183207,5.183206
0.377197,-0.229980,-0.216309,-13.534351,33.274811,7.145038
0.956787,0.385986,-0.200195,4.190840,-57.152672,-7.595420
-0.046143,-0.617676,-1.060547,-38.687023,31.458015,16.450382
0.232666,-0.618652,0.294189,-22.603054,97.473282,11.419847
0.932861,-0.630615,-2.000000,-41.458015,-23.343512,1.832061
0.582764,1.179443,1.622559,50.625954,-32.511452,-1.603053
0.045410,-0.969727,-0.468750,-31.610687,84.839691,21.473282
1.094482,-0.100586,-2.000000,-21.862595,-58.251907,-2.763359
0.941162,0.138916,-1.966309,-19.496183,-69.396950,-0.366412
0.439697,-0.363281,-1.721191,-42.687023,-2.816794,13.114504
0.025391,0.080811,1.168457,7.335878,102.099236,20.083969
0.733398,0.162109,-0.556396,-9.832061,-47.496181,12.893129
-0.190430,0.130371,0.686279,17.862595,46.541985,20.213741
0.163330,-0.322021,-0.352539,-17.427481,30.709923,34.167938
0.605469,-0.069092,-0.651123,-17.534351,-15.641221,26.343512
0.640869,0.132568,-0.488525,-20.374046,-32.503819,16.656488
0.568115,0.123291,-0.425537,-27.083969,-21.465649,21.221375
0.493896,0.082275,-0.502930,-33.106869,-5.977099,30.770992
0.428467,0.179932,-0.284180,-25.007633,1.030534,30.389313
0.538818,0.514648,-0.030029,-3.351145,-43.259541,14.656488
0.904541,0.718506,-0.280762,-16.083969,-113.900764,7.725191
1.148193,0.761475,-0.249512,-46.809162,-92.068703,27.007633
1.984314,1.534424,0.485107,-64.618324,-77.694656,27.793894
1.984314,1.749268,-0.127197,-212.244278,187.549622,91.519081
1.984314,0.874268,0.233154,-165.458008,158.870224,78.587784
1.984314,0.117188,-0.097656,-139.419846,71.755722,32.519085
1.984314,-0.026611,0.305420,-76.755722,-18.847328,-63.114502
1.959961,-0.518555,0.517822,5.274809,25.625954,-11.145039
1.498047,-0.217285,0.343994,11.450381,0.251908,-20.175573
1.313965,-0.084473,0.371582,34.000000,-34.183205,-30.610687
1.420898,0.221680,0.334961,52.832062,-60.931297,-37.167938
1.506104,0.343262,0.272949,70.458015,-77.885498,-37.916031
1.595703,0.392334,0.177002,89.221375,-90.290077,-34.106869
1.633545,0.363525,0.109863,100.091606,-85.702293,-41.206108
1.594238,0.409424,0.136475,114.221375,-72.893127,-49.885498
1.524170,0.508789,0.042969,113.206108,-45.854961,-48.809162
1.406006,0.453125,-0.161133,62.511452,-11.885496,-29.045801
1.310791,0.407227,-0.223877,26.557251,22.679390,-15.633588
1.155273,0.353516,-0.294678,23.618320,34.358780,-17.664122
0.990967,0.389404,-0.285156,32.473282,34.603054,-15.938931
0.880615,0.477295,-0.271240,43.038166,31.908398,-7.793893
0.807617,0.519043,-0.253662,41.190838,31.519083,-4.091603
0.737305,0.485107,-0.212158,25.206106,30.259542,-6.099236
0.656494,0.403320,-0.177002,5.694656,18.358778,-8.091603
0.620117,0.288818,-0.180176,-4.916030,2.603053,-7.664122
0.628662,0.162598,-0.188232,-4.290076,-9.229008,-7.557252
0.647705,0.107178,-0.076660,4.908397,-13.832061,-12.183207
0.622314,0.107422,0.040527,9.099236,-5.435114,-9.977099
0.575684,0.094238,0.115479,5.366412,6.709924,-3.610687
0.522949,0.066162,0.142578,-1.664122,15.839695,-0.664122
0.439209,0.034668,0.172852,-6.480916,19.541985,0.900763
0.377930,0.055420,0.195801,-3.152672,14.725191,0.770992
0.355225,0.117432,0.159668,2.274809,3.328244,-0.603053
0.414062,0.165283,0.052979,3.557252,-12.549619,-2.977099
0.287354,0.030273,0.141846,6.389313,22.664122,2.526718
0.152588,0.018799,0.487305,21.167938,36.748093,1.832061
0.782715,-0.154785,-1.097168,-24.038168,1.122137,2.992366
-0.172852,-0.145508,0.923828,28.656488,99.961830,5.061069
-0.179443,-0.020264,1.984314,29.679390,94.664124,17.091602
-0.004639,-0.951660,-0.504639,-30.824427,114.129768,27.381680
1.204590,0.755371,-1.361816,2.610687,-93.572517,-6.832061
-0.558594,-0.492920,1.820068,13.870229,111.709923,26.580153
0.518066,-0.754883,-1.961670,-23.526718,56.389313,19.404581
0.623047,-0.456055,-2.000000,-18.717558,28.427481,11.496183
0.121094,-0.394043,-0.577393,1.961832,85.068703,13.793893
0.329102,0.633789,1.370850,42.442749,-5.175572,7.778626
0.447266,-0.096436,-1.405762,-43.679390,-37.839695,32.702290
0.638184,0.608154,0.763184,20.595419,-17.190840,8.763359
0.051025,-0.161621,0.117920,1.137405,40.641220,26.564886
0.450195,-0.306641,-0.447754,-17.839695,33.839695,29.839695
0.614258,-0.117676,-0.586914,-12.755725,-1.007634,29.389313
0.683105,0.129639,-0.479492,-15.969465,-24.312977,23.137405
0.729004,0.360840,-0.237549,-30.755726,-30.595419,17.679390
0.855957,0.520264,0.131592,-45.442749,-43.687023,22.610687
1.427490,0.726074,0.089111,-80.618324,-87.160309,29.832062
1.984314,1.082764,0.211670,-147.564880,60.076336,20.167938
1.984314,0.991211,0.169189,-151.106873,191.946564,74.893127
1.984314,0.995117,0.104980,-117.152672,111.877861,81.610687
1.984314,0.505127,-0.085693,-109.595421,88.458015,34.931297
1.984314,0.178467,0.250732,-48.908398,22.175573,-13.549619
1.841064,-0.082520,0.482178,-11.618320,35.488548,11.847328
1.489990,-0.031006,0.454102,13.091603,-19.374046,-14.938931
1.338623,-0.001465,0.498535,39.290077,-30.160305,-21.328245
1.441162,0.274170,0.433350,62.847328,-51.641220,-22.351145
1.593018,0.321045,0.326416,85.038170,-69.809158,-21.244274
1.661133,0.380127,0.197021,101.648857,-97.961830,-42.450382
1.641846,0.302979,0.078125,109.236641,-125.465652,-61.977100
1.674561,0.446289,0.121826,122.221375,-123.587784,-76.564888
1.610840,0.605469,-0.080811,111.694656,-105.961830,-74.061066
1.564941,0.582031,-0.114014,71.099236,-55.244274,-49.916031
1.469238,0.474854,-0.206299,27.076336,10.969465,-26.175573
1.263916,0.303955,-0.278809,4.358778,47.603054,-16.954199
1.023682,0.211670,-0.329102,4.236641,55.335876,-12.610687
0.866699,0.263184,-0.330566,22.427481,49.122139,-9.404580
0.763428,0.392090,-0.322754,35.267174,35.427483,-8.671756
0.718994,0.499023,-0.289551,38.190838,26.656488,-13.893129
0.663330,0.482910,-0.326660,28.725191,21.335878,-20.351145
0.612793,0.379639,-0.182617,15.076336,19.038168,-22.221375
0.561279,0.204834,-0.047852,11.870229,19.496183,-19.885496
0.482666,0.045898,-0.083496,13.274809,20.038168,-18.526718
0.423828,-0.035645,-0.024414,19.954199,22.221375,-11.198473
0.408691,0.001465,0.076660,39.526718,22.908398,-7.916030
0.398682,0.053223,0.138916,57.694656,22.625954,-10.671756
0.370605,0.116699,0.081299,59.969467,20.503817,-17.427481
0.361084,0.120605,0.144531,49.083969,18.290077,-18.221375
0.358643,0.114990,0.177246,42.251907,20.412214,-15.580153
0.353516,0.132324,0.073486,29.687023,15.816793,-13.358779
0.368652,0.166016,-0.013672,16.595419,10.954199,-9.610687
0.424072,0.137939,0.039063,8.870229,9.977099,-11.381680
0.311035,-0.117432,-0.168945,-5.664122,45.854961,1.244275
0.199707,-0.271484,-0.106689,1.694656,71.076332,10.839695
0.916992,0.210693,-0.638184,-14.358779,-14.816793,5.977099
-0.171875,-0.547363,-0.816895,-0.160305,109.305344,18.603054
0.046631,-0.565186,0.330078,7.083970,116.297707,24.129770
0.829102,-0.553223,-2.000000,-55.251907,72.557251,27.618320
0.375732,1.177490,1.650635,6.145038,-89.954201,2.847328
0.021729,-0.862061,-0.928711,-43.519085,117.480919,35.580154
1.036865,-0.020752,-2.000000,-70.480919,-8.099236,15.152672
0.941650,0.156982,-2.000000,-62.679390,-42.030533,16.114504
0.530762,-0.301270,-1.866699,-56.244274,30.839695,31.549618
0.257324,0.231689,1.151123,13.412213,30.793894,23.625954
0.920654,0.241699,-0.830811,-49.198475,-77.106873,25.122137
0.239502,0.349609,0.620117,4.122138,-10.656488,15.190840
0.529053,-0.051270,-0.505859,-41.709923,10.832061,32.488548
0.953613,0.312988,-0.860352,-123.221375,-9.480916,61.435116
1.370850,0.771484,-0.378174,-209.687027,4.854962,127.335876
1.502441,0.751465,-0.332764,-188.740463,34.274811,102.534348
1.483643,0.556396,-0.002686,-219.610687,74.282440,89.404579
1.855713,0.691162,0.455811,-178.648849,121.000000,73.061066
1.984314,0.875244,0.765869,-120.717560,142.244278,43.236641
1.984314,0.853271,0.430176,-108.282440,110.816795,68.305344
1.984314,0.285889,0.313477,-92.816795,115.938934,48.099236
1.984314,-0.200684,0.590820,-31.954199,27.977098,4.419847
1.984314,-0.593018,0.412598,-17.358778,2.526718,7.900764
1.428467,-0.276123,0.526367,15.000000,-17.152672,-12.038168
1.173584,-0.281006,0.321289,27.725191,-26.007633,-16.000000
1.456543,0.134766,0.434814,46.816795,-60.396946,-27.770992
1.447754,0.236328,0.322754,55.381680,-49.122139,-37.725189
1.531250,0.206787,0.202881,62.198475,-91.557251,-45.877861
1.659668,0.183350,0.239746,79.351143,-114.335876,-67.488548
1.659668,0.094482,0.211914,95.068703,-101.022903,-86.893127
1.568848,0.150879,0.147217,105.007637,-90.007637,-89.725189
1.421875,0.215332,0.036133,101.099236,-69.175575,-93.106873
1.291992,0.277344,-0.133789,87.717560,-41.709923,-98.244278
1.139893,0.381348,-0.170898,85.916031,-33.129772,-96.198471
1.000732,0.508057,-0.182861,76.427483,-16.541985,-59.671757
0.985596,0.696289,-0.184082,50.961834,16.297710,-10.603053
0.965576,0.821289,-0.246826,29.152672,41.358780,4.473282
0.866699,0.755371,-0.282471,3.541985,44.656490,-1.969466
0.743408,0.525146,-0.234375,-13.977099,29.152672,-8.114504
0.674805,0.285400,-0.157471,-18.938931,9.374045,-7.740458
0.682373,0.156250,-0.134766,-11.572519,-7.908397,-7.870229
0.747314,0.116455,-0.114014,-1.229008,-18.870230,-12.114504
0.787842,0.104004,-0.140869,4.748092,-15.946565,-16.702290
0.770020,0.135498,-0.062012,11.366412,-1.977099,-16.083969
0.688477,0.180664,-0.028076,14.083969,10.702291,-9.984733
0.602539,0.276123,-0.020996,4.045802,13.572519,-3.488550
0.552002,0.361572,-0.030518,-12.022901,8.893129,3.236641
0.543945,0.336670,0.049561,-18.473282,3.160305,2.145038
0.553955,0.254639,0.060303,-13.366412,-3.694656,-2.717557
0.581055,0.186523,-0.042480,-1.969466,-8.809160,-5.564886
0.606689,0.181396,0.006836,16.473282,-4.137404,-6.519084
0.596191,0.197754,0.066162,26.068703,0.725191,-5.702290
0.562988,0.263672,0.101318,15.664123,-1.465649,-4.847328
0.642822,0.173096,-0.220459,-20.755726,-25.030535,0.366412
0.715820,-0.032227,-0.439209,-46.396946,-16.885496,-1.190840
0.826416,0.600342,0.887695,-0.488550,-34.229008,-8.114504
0.587646,-0.407471,-1.918457,-62.687023,-60.290077,11.015267
0.870361,-0.588867,-1.936279,-52.022900,-15.671756,4.381680
1.447998,0.273926,-2.000000,13.641221,-95.343513,-7.992366
-0.383789,0.346680,1.984314,46.152672,114.618324,24.145039
1.087158,-0.330078,-2.000000,3.824427,-41.320610,0.931298
0.924561,0.993896,-0.068848,53.419846,-65.572517,-3.694656
0.675049,0.910156,0.626953,37.984734,-48.305344,2.351145
0.815918,0.321533,-1.133057,-18.343512,-75.580154,9.145039
0.156982,-0.415771,-0.718262,-59.893131,54.099236,26.862595
0.793701,0.564697,0.980957,24.274809,27.595419,7.916030
-0.250488,-0.382813,-0.436523,-17.572519,68.450378,34.076336
0.638916,-0.038574,-0.558594,-3.083969,2.603053,14.000000
0.461182,0.321289,-0.201416,23.099237,-30.595419,10.717557
0.382568,0.412109,-0.054199,12.221375,-36.328243,22.061069
0.485107,0.366211,-0.174072,-12.526717,-44.091602,24.320610
0.614502,0.209229,-0.490479,-33.763359,-47.580154,28.954199
0.670654,0.043213,-0.731689,-41.519085,-24.885496,33.839695
0.667480,0.138184,-0.423584,-13.419847,-7.366412,28.755726
0.829590,0.609375,-0.119141,8.709924,-65.564888,14.183207
1.095947,0.903076,-0.478027,-148.839691,-69.633591,85.374046
1.566895,1.021484,0.274658,-176.748093,-9.068703,172.343506
1.984314,0.985107,0.264160,-151.442749,4.618320,115.541985
1.984314,0.735596,0.571533,-143.786255,178.190842,77.351143
1.984314,0.595703,0.638184,-106.114502,157.351151,77.595421
1.984314,0.237793,0.650879,-53.847328,77.755722,72.694656
1.984314,-0.228271,0.511230,-14.442748,37.725189,23.007633
1.918701,-0.322754,0.403809,18.732824,-17.770992,-11.778625
1.670410,-0.209717,0.336426,44.526718,-36.809162,-18.847328
1.598877,0.089600,0.247559,58.244274,-44.839695,-44.068703
1.538574,0.281738,0.197266,69.679390,-77.625954,-61.687023
1.581787,0.181641,0.189453,82.732826,-99.816795,-72.969467
1.720703,0.098389,-0.025146,92.114502,-113.305344,-86.122139
1.768311,0.174072,-0.098389,99.648857,-109.480919,-104.625954
1.710449,0.302246,-0.172119,101.824425,-88.213737,-106.267174
1.605957,0.304443,-0.185547,93.603050,-52.923664,-100.114502
1.428223,0.306885,-0.191406,79.534348,-24.862595,-79.595421
1.260010,0.379150,-0.108643,62.160305,13.992367,-37.320610
1.112793,0.516602,-0.094971,45.343510,49.709923,-4.167939
0.948242,0.575684,-0.104004,26.587786,56.610687,4.801527
0.769043,0.506104,-0.056396,11.412213,52.916031,-2.603053
0.599365,0.395020,0.011963,0.847328,31.587786,-4.274809
0.544678,0.336426,0.056641,-1.908397,5.236641,-2.053435
0.569336,0.302734,0.062744,-5.786260,-10.511451,-3.389313
0.598145,0.212158,0.096191,-8.076336,-11.412213,-6.190840
0.580566,0.151123,0.114746,1.206107,-3.221374,-11.916031
0.504150,0.145508,0.161377,3.717557,8.381680,-7.122138
0.443604,0.175537,0.143555,4.198473,15.778625,-1.519084
0.367432,0.205078,0.104736,-6.763359,10.503817,-5.458015
0.328369,0.123779,0.132324,-26.419847,9.885496,-0.946565
0.336426,0.042725,0.119629,-35.343510,13.152672,3.030534
0.332031,-0.005859,0.038086,-28.549618,12.068703,1.236641
0.338135,-0.030029,-0.078613,-20.366413,6.770992,0.992366
0.286377,0.088135,0.260010,7.343512,16.725191,-2.564885
0.316650,0.357422,0.468750,23.725191,-11.916031,2.129771
-0.078613,-0.209961,0.082275,0.778626,74.129768,22.282442
0.798828,0.829834,1.366943,31.259542,-23.213741,-4.946565
0.506104,0.774414,-0.086182,11.954199,-79.320610,-3.145038
-0.165039,0.764893,1.984314,30.450382,17.160305,4.839694
0.039795,-1.120361,-1.317383,-59.297710,79.709923,17.839695
0.796143,0.912842,-0.024902,18.847328,-81.511452,-6.946565
-0.355957,0.312988,1.984314,42.343510,51.702290,15.992367
-0.270264,0.204346,1.984314,48.702290,60.328243,15.091603
0.297363,0.589111,1.381348,52.282444,-33.969467,-3.587786
0.577637,-0.095459,-1.492188,-17.786259,-74.786263,-4.717557
-0.053711,0.025635,0.739014,28.198473,51.473282,-4.740458
0.636719,-0.121094,-0.929199,-20.969465,-45.992367,7.923664
0.624512,0.521240,0.134277,12.167939,-57.854961,12.122137
0.304443,0.480713,0.511719,12.824428,-24.717558,35.343510
0.365234,0.393799,0.476318,9.343512,3.419847,37.404579
0.455322,0.402344,0.402344,5.412214,3.458015,24.740458
0.604004,0.553467,0.286377,-8.450381,-35.862595,10.297709
0.891357,0.677490,-0.109131,-43.244274,-98.351143,-0.748092
1.105469,0.590088,-0.316162,-95.732826,-102.442749,29.083969
1.730713,0.919189,0.370850,-179.748093,-44.152672,138.541992
1.984314,1.234863,0.472900,-146.816788,100.305344,57.274811
1.984314,0.484375,0.244141,-167.083969,191.435120,89.366409
1.984314,0.599121,0.342773,-87.244278,128.435120,77.389313
1.984314,0.415771,0.255371,-82.702293,77.603050,13.503817
1.984314,0.148682,0.181641,-41.038166,38.290077,5.083970
1.775146,-0.288818,0.140869,-17.190840,5.450382,-4.297710
1.675293,-0.404297,0.248291,28.213741,-38.343510,-7.412214
1.279297,0.040283,0.424316,45.961834,-15.282443,-27.732824
1.173828,0.241455,0.188965,64.099236,-53.534351,-16.366413
1.420898,0.385010,0.261963,70.511452,-82.679390,-23.770992
1.560547,0.369141,0.124023,74.755722,-98.587784,-46.213741
1.641357,0.269287,0.018066,86.633591,-109.221375,-64.053436
1.639893,0.228516,0.040771,85.732826,-88.610687,-75.725189
1.509277,0.103271,-0.083496,66.862595,-64.244278,-82.618324
1.390869,0.059082,-0.117676,56.916031,-39.648853,-83.503815
1.227051,0.182373,-0.168213,51.923664,-15.755725,-55.984734
1.145020,0.456055,-0.201904,49.854961,7.824428,-17.877863
1.104004,0.702148,-0.179443,48.648853,22.648855,-2.870229
1.005859,0.777832,-0.211182,29.389313,31.022902,-6.656488
0.875000,0.681152,-0.197266,0.679389,24.893129,-8.671756
0.789551,0.456055,-0.158936,-12.297709,5.961832,-6.526718
0.771729,0.241943,-0.194336,-19.274809,-13.534351,-2.877863
0.812500,0.104980,-0.135986,-18.045801,-20.778625,-4.282443
0.816650,0.027832,-0.069336,-9.786260,-15.511451,-7.183206
0.771729,0.016602,0.006348,0.572519,-4.977099,-7.091603
0.705322,0.038086,0.080078,8.572519,5.816794,-5.519084
0.634521,0.110596,0.107666,13.007633,8.450381,-4.106870
0.596680,0.158447,0.139404,10.328244,7.748092,-4.885496
0.551025,0.217041,0.115234,6.900764,1.786260,-10.190840
0.535156,0.239990,0.083740,-4.183206,-3.992366,-5.335878
0.552979,0.213135,0.153809,-9.366412,2.206107,-1.580153
0.527832,0.126221,0.180664,-6.236641,9.076336,-0.183206
0.500732,0.095459,0.085693,-1.282443,10.320611,-1.137405
0.293945,0.105957,0.355957,12.244275,38.557251,0.030534
0.153320,0.249023,0.704346,22.595419,26.099237,0.465649
0.374756,-0.373047,-0.904785,-33.190838,52.015266,11.145039
0.182129,0.364990,1.945313,40.419846,50.793892,-8.061069
-0.002930,0.518555,1.984314,42.465649,-10.763359,2.251908
-0.493896,-0.470215,1.867676,31.885496,113.969467,19.832062
1.308594,-0.137695,-2.000000,-29.664122,2.725191,4.175572
-0.322998,0.533691,1.984314,62.320610,25.893129,4.755725
-0.217285,-0.598633,0.516113,17.099237,121.068703,21.435114
-0.010986,-0.502930,-0.052490,4.847328,112.374046,19.984734
-0.039795,0.121338,1.478271,36.389313,77.725189,13.870229
0.659424,0.493408,0.269775,-4.015267,-56.106869,10.114504
-0.200195,-0.507568,-0.722656,-41.206108,83.816795,28.038168
0.905029,0.168457,-0.046387,-29.091602,-11.832061,14.251908
-0.006836,0.176514,0.522949,29.114504,9.862596,22.473282
-0.029053,0.071045,0.313232,28.198473,26.106871,32.114502
0.181885,0.182861,0.028564,15.618320,15.320611,22.770992
0.323730,0.224365,-0.025879,2.198473,-4.709924,11.862596
0.472168,0.259033,0.137695,-11.229008,-28.106871,10.633588
0.755127,0.425781,0.169922,-14.511451,-64.221375,12.526717
1.090576,0.488525,-0.250244,-42.282444,-85.129768,21.832062
1.262451,0.503906,-0.094238,-60.320610,-51.610687,39.404579
1.934814,1.017578,0.323730,-92.877861,-75.251907,50.076336
1.984314,1.234131,0.208252,-156.419846,104.450378,53.442749
1.984314,0.848633,0.398682,-128.068695,174.022903,81.129768
1.984314,0.491455,0.063965,-90.755722,100.847328,61.725189
1.984314,0.204590,0.387939,-40.396946,10.992367,12.885496
1.984314,-0.228516,0.313721,-14.435115,27.374046,-2.557252
1.656250,-0.178711,0.280762,34.984734,-21.572519,-11.656488
1.409912,0.063232,0.328125,47.167938,-22.282442,-28.274809
1.318359,0.320313,0.114990,62.648853,-45.374046,-28.396946
1.390869,0.387451,0.062744,71.755722,-59.587788,-31.152672
1.483887,0.421631,-0.159668,68.595421,-66.877861,-48.763359
1.515625,0.365967,-0.229980,64.389313,-77.839691,-63.740459
1.529297,0.331543,-0.180908,56.816795,-77.900764,-62.106869
1.520508,0.194336,-0.145508,44.541985,-52.587788,-54.847328
1.418213,0.151367,-0.113037,27.198473,-12.099236,-32.694656
1.270752,0.262939,-0.112061,24.152672,23.847328,-12.885496
1.100586,0.390869,-0.148193,30.633587,33.106869,-7.061069
0.955078,0.484375,-0.061035,33.603054,36.259541,-10.992367
0.815674,0.514160,-0.038574,31.259542,31.961832,-12.488549
0.743408,0.511963,0.007568,27.122137,18.198473,-9.717557
0.723389,0.462402,0.015381,16.862595,3.435115,-7.709924
0.735352,0.367432,0.009766,3.954198,-9.503817,-6.236641
0.775879,0.255127,0.034424,-1.007634,-13.770992,-6.770992
0.798584,0.196045,0.027588,0.480916,-13.809160,-8.572519
0.810791,0.161133,0.016113,4.473282,-10.732824,-11.229008
0.788330,0.118408,0.016357,4.748092,-3.160305,-11.534351
0.744873,0.091309,0.023437,2.610687,1.946565,-8.061069
0.703369,0.114990,0.040771,3.992366,4.450382,-6.221374
0.661621,0.178223,0.075684,1.053435,2.916031,-7.633588
0.627686,0.177490,0.114258,-6.916030,3.656489,-6.175572
0.606689,0.129150,0.096191,-10.320611,6.030534,-4.503817
0.587402,0.103760,0.054199,-8.167939,4.587786,-2.167939
0.621582,0.156738,-0.012451,1.816794,-4.175572,-3.854962
0.468262,0.036377,0.018311,-1.969466,28.396946,4.236641
0.325195,0.028320,0.333740,5.404580,49.839695,3.259542
0.922119,-0.193848,-1.163086,-23.984734,-24.946566,-4.374046
0.039795,-0.001465,1.041504,10.381680,96.374046,3.053435
0.076660,0.161377,1.984314,21.969465,117.671753,8.931297
-0.158447,-0.862061,0.396973,-41.351147,93.458015,16.038168
1.406738,0.391846,-2.000000,10.679389,-85.793892,-10.396947
-0.519287,-0.067627,1.984314,-13.351145,124.389313,28.503817
0.296631,-0.814209,-1.347412,-46.496181,31.916031,14.183207
0.455322,-0.589355,-1.709961,-33.625954,7.541985,8.236641
0.391602,-0.409180,-1.529053,-12.557252,78.290077,14.190840
0.162842,0.278564,1.345703,52.603054,44.519085,2.748092
0.668213,-0.044922,-0.870605,-27.877863,-24.351145,15.679389
0.059082,0.352783,0.868652,27.114504,10.664123,1.259542
-0.045654,-0.142822,-0.033691,-9.328244,51.290077,30.061069
0.384277,-0.081299,-0.479492,-36.282444,45.633587,31.587786
0.488037,0.013184,-0.536621,-40.793892,24.450382,28.381680
0.469971,0.014160,-0.501709,-32.641220,14.916031,22.984734
0.387451,0.035156,-0.319336,-15.045801,14.908397,17.183207
0.356445,0.263916,0.000732,8.099236,-2.832061,12.564885
0.620361,0.626465,-0.022949,10.053435,-58.687023,8.870229
0.920654,0.602539,-0.401855,-30.702290,-76.076332,12.877863
1.056885,0.648437,-0.111084,-62.091602,-73.580154,35.526718
1.981445,0.900635,0.112793,-157.053436,-106.977097,101.122139
1.984314,0.797119,0.147705,-153.213745,122.259544,78.145035
1.984314,0.510986,0.419922,-140.969467,180.091599,57.832062
1.859375,0.245850,0.233643,-91.832062,145.465652,88.068703
1.984314,0.186035,0.307129,-54.251907,45.106869,26.007633
1.984314,-0.016846,0.403076,-20.404581,52.641220,5.816794
1.661133,-0.233398,0.283203,6.709924,3.732824,-4.091603
1.543945,-0.135986,0.424072,30.427481,-34.213741,-22.977098
1.384521,0.137695,0.414062,52.526718,-30.641222,-31.977098
1.276123,0.359131,0.269775,67.404579,-60.496181,-25.824427
1.385254,0.372803,0.185303,74.694656,-85.061066,-33.748093
1.547852,0.334473,0.026611,77.320610,-97.778625,-56.282444
1.643311,0.359131,-0.083008,78.412216,-106.526718,-73.625954
1.636963,0.337158,-0.150635,69.770996,-92.595421,-78.977097
1.562744,0.221924,-0.203857,49.267174,-63.038166,-83.183205
1.400391,0.179199,-0.188477,29.076336,-22.854961,-65.687019
1.239258,0.283447,-0.151855,25.480917,13.725191,-26.145039
1.116211,0.451416,-0.156738,30.122137,32.229008,-1.656489
0.986816,0.581543,-0.175781,25.740458,42.442749,-1.931298
0.844971,0.587158,-0.187744,17.435114,36.824429,-10.106871
0.729980,0.491455,-0.106445,14.839695,20.702290,-13.748092
0.677002,0.382813,-0.100342,12.259542,3.290076,-10.381680
0.702393,0.310547,-0.089600,6.633588,-9.809160,-7.152672
0.765381,0.257324,-0.053711,0.816794,-15.580153,-8.511451
0.796631,0.169434,0.001465,-0.511450,-9.755725,-12.488549
0.750000,0.075439,0.013672,-0.343511,2.198473,-12.435115
0.677490,0.037842,0.063721,4.114504,13.358779,-7.908397
0.592041,0.048584,0.069580,5.175572,15.969465,-6.175572
0.523926,0.121338,0.112305,-0.526718,13.412213,-4.122138
0.486328,0.175293,0.083740,-8.931297,9.076336,-1.038168
0.485596,0.178223,0.085937,-14.671756,3.694656,0.389313
0.469727,0.097900,0.024414,-16.641222,1.954198,1.748092
0.412109,0.179443,0.349365,7.358778,13.793893,-2.083969
0.425781,0.406494,0.558105,24.946566,-13.442748,-4.244275
-0.109375,-0.175537,0.365967,5.786260,71.893127,13.374045
0.912354,0.766846,1.151611,33.137405,-28.633587,-7.923664
0.648926,0.636963,-0.630615,13.259542,-89.427483,-1.694656
0.172363,0.973389,1.984314,40.778625,3.541985,3.129771
-0.194824,-0.987793,-0.195801,-44.770992,89.129768,21.106871
1.136230,0.825928,-0.903076,16.900763,-95.916031,-9.503817
0.016846,0.650391,1.984314,44.198475,23.648855,8.435115
0.030762,0.485107,1.984314,47.541985,42.198475,9.725191
0.580078,0.658203,0.820801,41.122139,-41.534351,1.274809
0.439941,-0.248779,-1.697021,-33.969467,-22.809160,13.770992
0.210693,0.420166,1.065186,27.564886,63.152672,7.587786
0.282227,-0.313477,-1.037598,-44.297710,12.541985,29.335878
0.776611,0.261475,-0.277588,-10.183207,-32.893131,12.374045
0.410156,0.317871,0.208008,22.267176,-34.229008,16.687023
0.381592,0.291992,0.329346,32.534351,-33.290077,14.541985
0.493164,0.385742,0.263184,30.526718,-43.633587,7.282443
0.654785,0.496094,0.089111,13.610687,-56.664124,4.290076
0.805420,0.489990,-0.238281,-22.839695,-60.610687,15.778625
0.843750,0.392334,-0.151855,-50.801525,-30.198473,29.648855
0.988525,0.635986,0.284424,-46.335876,-40.526718,32.877861
1.484131,0.801514,-0.056152,-80.435112,-91.641220,23.259542
1.984314,0.810547,0.237061,-134.358780,21.335878,93.877861
1.984314,1.039063,0.354736,-148.748093,171.725189,60.320610
1.807617,0.260742,0.321289,-117.809158,172.312973,81.793892
1.984314,0.273926,-0.038086,-65.580154,41.198475,43.534351
1.984314,0.173828,0.125732,-41.175571,41.259541,6.297710
1.802246,-0.044678,0.012695,-17.007633,18.305344,-9.549619
1.556885,-0.122070,0.212646,15.633588,-26.053434,-4.427481
1.354980,0.129150,0.273682,25.877863,-19.541985,-20.740458
1.258057,0.367188,0.247070,39.206108,-41.267174,-18.748091
1.336182,0.315918,0.106689,48.763359,-71.977097,-17.137405
1.524658,0.282959,0.062988,60.946564,-78.832062,-42.473282
1.548828,0.246338,-0.010010,69.053436,-82.267174,-56.900764
1.551514,0.237793,-0.047852,65.557251,-75.114502,-60.916031
1.518555,0.149170,-0.186279,51.816795,-65.267174,-68.000000
1.444336,0.127686,-0.185547,44.221375,-46.938931,-67.374046
1.347656,0.301514,-0.114990,47.236641,-13.877863,-40.145039
1.229248,0.501709,-0.070557,51.763359,17.152672,-11.847328
1.100342,0.594971,-0.067139,41.198475,35.000000,-0.740458
0.958008,0.562744,-0.067383,24.427481,39.793892,-4.916030
0.828369,0.445068,-0.098145,16.183207,25.007633,-7.541985
0.777344,0.338867,-0.111084,18.755726,5.557252,-7.587786
0.804687,0.311523,-0.080566,24.580153,-6.587786,-9.961832
0.836670,0.298828,-0.026367,25.961832,-10.625955,-14.076336
0.843262,0.257568,0.034424,15.519084,-2.931298,-14.725191
0.788330,0.217529,0.068604,5.106870,9.587787,-12.541985
0.707275,0.177979,0.081299,-2.167939,18.076336,-8.396947
0.628906,0.129150,0.070801,-5.175572,20.503817,-5.450382
0.567383,0.076172,0.051270,-3.137405,16.702290,-4.358778
0.525391,0.086182,0.054687,5.839694,8.809160,-6.679389
0.507324,0.116455,0.127197,10.687023,3.511450,-5.167939
0.507080,0.166748,0.128906,9.419847,2.297710,-2.839695
0.522217,0.160889,0.064453,0.175573,1.351145,-1.984733
0.378418,0.169189,0.298828,3.496183,21.633587,-2.755725
0.277100,0.315918,0.603027,13.923664,4.381680,-3.045802
0.284912,-0.406250,-0.684326,-31.412214,48.488548,12.007633
0.484375,0.553223,1.906982,38.572517,15.641221,-9.366412
0.314941,0.653564,1.882324,43.618320,-49.053436,-2.557252
-0.449951,-0.082764,1.984314,50.656490,78.541985,12.381680
1.104248,-0.616699,-2.000000,-25.679390,17.984734,6.946565
0.123047,0.951660,1.984314,61.923664,-23.526718,-1.839695
-0.325684,-0.268799,1.621826,21.343512,101.473282,18.877863
-0.126221,-0.254639,1.005615,10.000000,102.984734,17.435114
0.101318,0.439453,1.840088,35.984734,41.496181,10.053435
0.713135,0.386475,-0.489746,-20.793894,-72.396950,10.358779
-0.212158,-0.192383,-0.003662,-10.877863,74.022903,20.648855
0.942383,0.083008,-0.545654,-26.496183,-27.167938,11.595420
0.400635,0.402588,0.374756,32.221375,-26.419847,3.740458
0.160889,0.309814,0.548340,48.274811,2.381679,12.167939
0.199951,0.352295,0.345947,32.282444,8.564885,12.938931
0.289307,0.414062,0.307617,6.229008,0.763359,9.007633
0.414062,0.413574,0.239746,-12.870229,-24.610687,7.916030
0.607910,0.306396,-0.125488,-31.625954,-47.435116,13.816793
0.688232,0.166504,-0.354004,-38.984734,-14.641221,19.916031
0.610596,0.385986,0.098877,-7.236641,3.206107,11.793893
0.913818,0.774414,0.064209,-7.572519,-64.648857,8.679389
1.123535,0.717285,-0.285400,-72.320610,-53.106869,39.358780
1.984314,1.297119,0.457275,-134.938934,50.450382,122.885498
1.984314,0.674316,-0.039063,-178.984726,227.267181,64.793892
1.848389,0.295410,0.025146,-114.045799,150.702286,81.969467
1.984314,0.267822,0.054443,-98.816795,86.900764,29.809160
1.984314,-0.229736,0.075439,-70.137405,36.832062,-19.083969
1.874756,-0.496826,0.292480,-11.687023,7.885496,-9.267176
1.415527,-0.434814,0.325439,6.694656,-9.687023,-30.129770
1.098145,0.166504,0.380615,38.572517,-18.366413,-37.160305
1.090576,0.494141,0.338379,43.137405,-40.641220,-21.854961
1.328125,0.406738,0.307129,64.839691,-67.977097,0.091603
1.502686,0.358887,0.232422,73.832062,-91.213737,-6.396946
1.545166,0.208252,0.107666,81.770996,-90.458015,-34.778625
1.567139,0.218994,0.074463,83.679390,-99.572517,-53.122139
1.525391,0.364502,0.026855,86.549622,-95.442749,-67.603050
1.464111,0.360596,-0.098633,70.206108,-63.534351,-72.587784
1.350342,0.283936,-0.207031,42.152672,-27.679390,-68.198471
1.225586,0.261963,-0.236084,20.229008,5.656488,-35.687023
1.133057,0.336182,-0.240967,21.114504,29.900763,-9.404580
1.043213,0.446533,-0.180176,29.366413,43.366413,-3.312977
0.913818,0.532959,-0.190918,34.412212,43.473282,-8.961832
0.802002,0.547119,-0.222168,30.595419,29.954199,-11.213740
0.765625,0.492432,-0.228516,20.519083,8.793893,-10.297709
0.792969,0.381104,-0.177490,5.832061,-8.015267,-9.641221
0.837158,0.241455,-0.134277,-3.877863,-11.885496,-10.129771
0.857666,0.094727,-0.039795,-5.854962,-5.740458,-10.206107
0.819824,0.005615,0.007324,0.473282,6.778626,-7.106870
0.738525,0.008301,0.047119,7.404580,16.297710,-3.213740
0.658936,0.092773,0.040771,8.740458,17.152672,-1.603053
0.593750,0.171875,0.054932,2.122137,13.061069,-2.251908
0.558350,0.193604,0.070801,-4.709924,5.618320,-4.076336
0.537109,0.154785,0.052734,-13.709924,-2.236641,-4.267176
0.433838,0.187256,0.377197,0.694656,10.900764,-6.190840
0.398438,0.354980,0.701416,18.480917,-16.732824,-6.419847
0.142334,-0.339600,-0.140625,7.190840,59.618320,10.732824
0.766602,0.828125,1.865723,48.908398,-38.633587,-11.908397
0.564209,0.906738,0.967285,22.717558,-100.587784,-7.969466
-0.195068,0.594727,1.984314,48.076336,-24.106871,-3.748092
0.637207,-0.917725,-2.000000,-34.534351,93.297707,16.244274
0.860107,1.082275,0.870850,4.725191,-105.755722,-16.274809
-0.121094,0.338623,1.984314,41.526718,-3.045802,-0.015267
0.008545,0.294189,1.984314,46.671757,16.229008,6.374046
0.587402,0.686768,1.244873,33.038166,-54.007633,1.877863
0.579346,-0.165283,-1.551025,-31.167938,0.206107,13.404580
0.243896,0.385742,1.097412,44.541985,42.709923,-3.198473
0.377930,-0.291992,-0.837646,-23.427481,38.603054,24.847328
0.785645,0.282715,-0.278564,-15.740458,-10.740458,8.183207
0.409668,0.413818,0.142334,1.152672,-20.801527,11.641221
0.294434,0.423828,0.240723,4.190840,-18.687023,13.854961
0.371582,0.422852,0.121338,5.465649,-32.587788,13.557252
0.527588,0.354004,-0.126953,1.534351,-39.778625,11.549619
0.564697,0.143555,-0.371338,-12.473283,-15.351145,13.106871
0.393311,0.063232,-0.138916,-14.480916,16.717558,14.885496
0.460449,0.366699,0.068848,-6.083970,-21.213741,10.061069
0.616455,0.343506,-0.441650,-33.015266,-36.511452,19.534351
0.589844,0.422607,0.027344,-15.656488,-16.648855,17.282442
0.875977,0.602539,-0.048096,-37.206108,-65.290077,10.404580
0.983154,0.700928,-0.033203,-43.412212,-63.358780,19.458015
1.720215,0.774902,0.083252,-148.206100,-50.969467,111.312981
1.984314,1.016113,0.398193,-140.664124,130.900757,74.465652
1.926758,0.414551,0.372070,-154.893127,206.549622,82.549622
1.923584,0.147705,0.017578,-106.267174,129.954193,82.900764
1.984314,0.063477,0.299561,-68.541985,64.870232,19.183207
1.984314,-0.257813,0.225098,-53.374046,66.816795,-0.404580
1.801270,-0.467773,0.212158,-5.748092,3.809160,-1.801527
1.482422,-0.323486,0.386475,5.648855,-12.816793,-27.404581
1.127197,0.111084,0.387451,29.038168,-20.099237,-34.641220
1.111084,0.395752,0.365967,45.946564,-41.618320,-20.519083
1.338379,0.458496,0.261230,63.610687,-57.801525,-3.106870
1.474365,0.443604,0.186768,64.603050,-86.763359,-12.351145
1.514404,0.235840,0.146729,66.068703,-98.877861,-40.167938
1.564453,0.160400,0.091064,70.374046,-105.312981,-59.015266
1.568848,0.301514,-0.031006,80.900764,-103.259544,-69.961830
1.525146,0.347900,-0.129150,70.610687,-76.076332,-74.748093
1.424561,0.320068,-0.192871,52.603054,-38.832062,-77.564888
1.264160,0.273926,-0.240234,28.854961,-12.534351,-52.526718
1.183105,0.329590,-0.192383,23.305344,14.824428,-20.343512
1.092285,0.437744,-0.203613,25.068703,32.389313,-6.442748
0.980713,0.520508,-0.175537,22.908398,36.610687,-8.519084
0.863037,0.515625,-0.183838,18.335878,28.404581,-14.404580
0.784668,0.433350,-0.141846,11.419847,11.900764,-13.992367
0.760254,0.315674,-0.121094,2.251908,-3.282443,-10.679389
0.797363,0.193848,-0.052002,-5.061069,-10.183207,-8.503817
0.823242,0.108643,-0.016846,-3.786260,-5.931298,-9.648855
0.800049,0.042969,0.044434,3.488550,5.587786,-10.900764
0.732422,0.039307,0.079346,11.419847,13.206107,-8.992367
0.666992,0.127197,0.163330,17.511450,14.458015,-10.000000
0.714844,0.061279,-0.218262,-6.083970,-2.954198,-7.419847
0.781494,-0.052002,-0.471680,-21.755726,-1.511450,-9.297709
0.811523,0.713379,0.829102,21.305344,-27.442749,-17.496183
0.716797,-0.264404,-1.957764,-53.839695,-53.229008,0.351145
0.947754,-0.477295,-2.000000,-53.541985,-24.893129,-10.122137
1.419189,0.519043,-1.793213,9.465649,-94.862595,-20.916031
-0.459717,0.187256,1.984314,16.236641,115.152672,15.152672
1.277344,-0.214844,-2.000000,-14.870229,-73.877861,-11.152672
0.896240,1.058594,0.388916,40.045803,-64.312981,-12.618320
0.644287,0.927734,1.024902,35.893131,-41.442749,-7.557252
0.893066,0.483398,-0.787109,-3.908397,-86.358780,-7.946565
0.230225,-0.493164,-1.139160,-46.755726,28.221375,9.687023
0.752930,0.589355,1.138672,33.717556,25.755726,-4.404580
-0.078125,-0.402832,-0.612793,-20.664122,48.877861,26.587786
0.831787,0.056396,-0.531494,-4.541985,-12.908397,3.671756
0.580322,0.334717,-0.077393,26.137405,-32.030533,0.580153
0.453369,0.384521,0.202881,34.015266,-21.977098,2.068702
0.455811,0.401367,0.100098,28.396946,-23.282442,1.679389
0.503662,0.285889,-0.180176,3.435115,-26.580153,5.900764
0.446533,0.016846,-0.395264,-27.328245,-0.541985,16.175573
0.277588,-0.073730,-0.069824,-23.961832,35.015266,22.740458
0.362305,0.214600,0.038574,4.679389,-2.328244,17.480917
0.474609,0.185547,-0.447021,0.366412,-18.740458,21.213741
0.391602,0.250488,-0.054199,24.244274,2.213740,13.633588
0.589600,0.349365,-0.091553,2.465649,-45.450382,9.244275
0.577148,0.319336,-0.041748,0.419847,-23.885496,9.725191
0.794922,0.410156,-0.077881,-26.274809,-52.839695,14.030535
0.942871,0.552002,0.147949,-19.572519,-53.206108,15.068703
1.158447,0.708008,0.041992,-60.465649,-46.854961,34.854961
1.984314,0.938721,0.392822,-133.488556,-53.503819,107.473282
1.984314,0.968506,0.611572,-138.007629,143.000000,67.977097
1.984314,0.234131,0.522949,-129.206100,178.358780,79.839691
1.984314,0.200195,-0.020508,-82.061066,93.709923,55.916031
1.984314,-0.116455,0.192627,-54.114502,19.396946,-7.267176
1.984314,-0.285156,0.062500,-8.671756,19.564886,-15.839695
1.483154,-0.085205,0.003662,13.137404,-21.984734,-26.221375
1.337646,0.178223,0.228271,38.076336,-23.221375,-29.412214
1.152344,0.449463,0.155518,49.816795,-37.076336,-24.259542
1.184082,0.561768,0.162109,67.572517,-65.450378,-3.664122
1.414063,0.465576,0.137207,65.450378,-73.236641,-10.916031
1.530029,0.309570,0.018555,62.244274,-85.580154,-45.290077
1.562500,0.326660,0.030029,63.068703,-104.114502,-57.648853
1.581055,0.306152,0.005859,61.641220,-83.366409,-62.610687
1.521484,0.218262,-0.145020,45.854961,-52.854961,-66.206108
1.413574,0.189209,-0.125244,31.366413,-17.961832,-45.786259
1.285645,0.267334,-0.095947,30.114504,21.625954,-18.519083
1.126709,0.347412,-0.173340,26.251909,38.335876,-5.152672
0.992187,0.421631,-0.137451,21.900763,41.412212,-8.259542
0.857666,0.442383,-0.119629,19.931297,30.740458,-12.618320
0.779541,0.436523,-0.131348,11.801527,10.862596,-10.160305
0.772705,0.402832,-0.121826,2.320611,-3.274809,-7.488550
0.798584,0.301025,-0.083740,-5.374046,-10.068703,-7.106870
0.826416,0.199951,-0.061035,-8.603053,-8.137404,-7.343512
0.818604,0.149414,0.008057,-7.274809,0.030534,-6.190840
0.797119,0.140381,0.045898,-3.450382,2.938931,-6.488550
0.770996,-0.081299,-0.261719,-25.015266,12.717557,1.526718
0.706055,-0.316895,-0.415283,-27.305344,40.320610,-0.183206
1.141846,0.402832,-0.042236,1.145038,-43.717556,-17.595419
0.250244,-0.608154,-1.592285,-35.404579,37.679390,5.793893
0.502686,-0.628174,-0.680664,-25.374046,94.992363,3.496183
1.311768,-0.280762,-2.000000,-46.717556,-32.801525,-6.473282
0.301025,1.170654,1.984314,43.435116,-31.801527,-10.198473
0.507568,-0.886963,-1.657227,-44.396946,53.656490,9.473283
1.288818,0.262207,-2.000000,-21.465649,-82.511452,-13.137404
1.077881,0.366211,-1.496826,-14.786260,-87.870232,-13.282443
0.647461,-0.303223,-1.885986,-44.282444,-19.061069,0.503817
0.085205,-0.058105,0.746338,8.465649,87.450378,8.083969
0.973877,0.319336,-0.242920,-2.946565,-53.496181,2.610687
-0.107178,0.110107,0.511230,28.496183,46.206108,7.099236
0.355713,-0.295410,-0.476074,-15.526717,41.770992,14.687023
0.680664,-0.083008,-0.584473,-7.534351,4.007634,5.679389
0.687256,0.046631,-0.438965,10.267176,-7.519084,1.312977
0.619385,0.019775,-0.450684,10.045801,-5.007634,1.465649
0.484863,-0.062500,-0.357178,2.801527,15.038168,4.709924
0.299072,-0.011475,-0.047119,1.839695,35.992367,10.992367
0.355225,0.288574,0.220215,7.427481,4.923664,9.297709
0.529541,0.284180,-0.240967,-15.358779,-27.671755,11.328244
0.391602,0.062500,-0.112549,-13.404580,20.053434,18.152672
0.528564,0.280762,0.071533,2.450382,-18.526718,10.786260
0.495605,0.124756,-0.366455,-4.274809,6.977099,15.259542
0.615723,0.349609,-0.085449,21.610687,-31.068703,5.610687
0.611084,0.325684,-0.186523,7.938931,-11.290076,11.709924
0.804199,0.514404,-0.127930,-8.931297,-49.129772,6.748092
0.853271,0.593506,-0.026367,-30.114504,-37.786259,0.274809
0.922852,0.552979,-0.069336,-92.511452,-19.641222,34.885498
1.200195,0.513672,0.067627,-135.099243,1.435115,97.656487
1.875244,0.622559,0.322021,-121.389313,42.854961,83.572517
1.984314,0.626465,0.463623,-130.320618,136.221375,31.198473
1.984314,0.648193,0.507812,-114.488548,154.244278,64.213737
1.984314,0.316650,0.239746,-95.954201,122.137405,75.496185
1.984314,-0.237305,0.108887,-74.793892,64.358780,17.312977
1.984314,-0.385010,0.106689,-23.671755,17.801527,-22.625954
1.601563,-0.115479,0.198730,-2.931298,1.175573,-33.412212
1.191650,-0.003662,0.246826,25.114504,-8.687023,-30.366413
1.060303,0.468018,0.287598,35.106869,-25.885496,-24.480917
1.165039,0.362305,0.292480,50.748093,-45.816795,-2.961832
1.408936,0.427246,0.287354,63.656490,-80.664124,0.244275
1.545898,0.333740,0.263428,73.045799,-98.030533,-10.099236
1.580566,0.222656,0.155762,79.435112,-101.671753,-42.793892
1.575928,0.326660,0.101074,83.870232,-107.312981,-58.290077
1.515625,0.407227,-0.025635,76.793892,-97.167938,-62.038166
1.474121,0.418945,-0.161133,58.847328,-60.099236,-68.908394
1.368408,0.340820,-0.259277,38.549618,-24.274809,-62.083969
1.243896,0.289307,-0.254639,20.603054,13.076336,-29.816793
1.142334,0.317871,-0.193359,19.305344,43.114502,-5.938931
1.002930,0.369629,-0.175049,22.259542,51.732826,-2.916031
0.872803,0.421387,-0.151367,20.519083,43.832062,-7.198473
0.793213,0.424805,-0.141846,14.832061,24.793894,-9.236641
0.778320,0.361816,-0.166260,4.068702,5.679389,-9.114504
0.772705,0.170654,-0.143311,-8.442748,3.824427,-7.839694
0.785400,0.235352,0.256836,15.259542,-7.106870,-16.961832
0.756592,0.382568,0.438477,25.526718,-26.083969,-14.129771
0.185059,-0.308838,0.076416,17.396946,68.206108,8.167939
0.964355,0.894531,1.848633,43.557251,-28.351145,-11.816793
0.598389,0.950684,1.208496,26.671755,-84.290077,-12.511451
-0.279053,0.325195,1.984314,41.938931,29.793894,-2.343511
1.144531,-0.694824,-2.000000,-48.511452,48.702290,2.908397
0.293457,1.030029,1.984314,43.297710,-57.763359,-16.992367
-0.226074,-0.271240,1.710693,30.748091,88.343513,7.847328
0.001953,-0.304199,0.930420,22.328245,97.465652,8.877863
0.189209,0.379395,1.855225,38.770992,40.908398,-0.366412
0.882324,0.509277,-0.063232,-12.335877,-80.709923,-3.839695
-0.042725,-0.289795,-0.405029,-18.328245,59.114502,9.068703
1.189453,0.373047,-0.183350,-20.916031,-44.297710,-4.343512
0.336426,0.445068,0.507324,28.824427,-14.458015,-6.366412
0.205566,0.088623,0.377930,21.954199,34.381680,3.748092
0.250732,-0.129150,0.129639,11.045801,50.984734,7.152672
0.249756,-0.158203,0.185303,18.618320,52.106869,9.152672
0.258545,0.080322,0.277588,34.732826,32.061069,6.160306
0.400879,0.360107,0.163086,36.961834,-12.381680,-0.190840
0.516846,0.283691,-0.264160,10.473283,-22.496183,0.007634
0.350342,0.044922,-0.118896,-4.419847,24.236641,9.007633
0.414551,0.244873,0.265381,11.099236,1.129771,1.450382
0.432373,0.068359,-0.357178,-10.564885,6.061069,10.290076
0.339355,0.135498,0.091553,17.083969,17.832062,5.984733
0.335449,0.035645,-0.156738,-4.198473,8.320611,18.015266
0.343750,0.214600,0.039307,18.022902,-5.045802,12.656488
0.305420,0.198486,-0.133789,-3.679389,3.969466,17.412214
0.419434,0.318115,-0.095215,-8.335877,-33.870228,12.297709
0.525879,0.330566,-0.071777,-5.183206,-36.770992,7.938931
0.661865,0.343018,-0.151123,-11.229008,-46.534351,6.648855
0.843994,0.474121,-0.090332,-16.908398,-65.328247,3.251908
1.065674,0.724365,-0.066406,-66.343513,-68.847328,26.755726
1.595947,0.880127,0.265381,-121.740456,-51.152672,73.442749
1.984314,0.748779,0.589111,-115.137405,81.549622,70.961830
1.984314,0.436523,0.601318,-129.908401,184.229004,73.374046
1.970947,0.253662,0.382324,-87.152672,148.763351,82.396950
1.984314,0.160156,0.290283,-69.534348,58.709923,24.786259
1.984314,-0.269775,0.147217,-41.458015,24.832062,-19.335878
1.803955,-0.022705,-0.021484,7.893130,-15.442748,-32.687023
1.348877,0.069580,0.074951,19.763359,-27.580153,-35.603054
1.030273,0.338623,0.164795,44.511452,-23.236641,-22.641222
0.871094,0.542236,0.226807,55.374046,-40.312977,-1.824427
1.084229,0.527100,0.184814,61.396946,-68.351143,18.938931
1.418213,0.570312,0.119385,45.549618,-88.847328,2.160305
1.585938,0.269287,0.011963,26.488550,-96.656487,-37.221375
1.576416,0.137207,-0.045898,33.419846,-105.106873,-57.557251
1.572754,0.150879,-0.059082,46.335876,-95.076332,-59.687023
1.514404,0.184082,-0.186279,50.778625,-57.969467,-49.206108
1.455322,0.258301,-0.331787,36.335876,-6.786260,-28.519083
1.347900,0.302246,-0.368164,31.603054,22.885496,-19.152672
1.179688,0.311279,-0.326904,27.496183,35.122139,-15.099236
1.032715,0.387939,-0.220215,29.274809,32.549618,-11.122137
0.952637,0.509521,-0.110596,31.969465,22.198473,-8.625955
0.889648,0.552734,-0.056641,23.213741,14.000000,-7.122138
0.997070,0.681885,0.028809,20.083969,-20.099237,-19.671755
1.097168,0.601807,-0.150391,10.824428,-40.358780,-22.450382
0.325684,0.237549,0.815430,23.328245,49.770992,-7.099236
1.450439,0.550049,-0.040527,38.091602,-61.679390,-25.167938
1.212158,0.481445,-1.662842,38.190838,-97.312981,-23.824427
0.794678,1.213623,1.602539,68.022903,14.931297,-12.755725
0.058350,-0.768799,0.125732,-33.832062,73.541985,0.702290
1.337646,1.046631,-0.531006,40.839695,-57.404579,-20.618320
-0.014160,0.657715,1.984314,27.412214,90.290077,3.687023
-0.062012,0.337402,1.984314,15.725191,102.427483,4.167939
0.400879,0.699951,1.781982,40.748093,31.732824,-8.687023
0.820557,0.182861,-1.082031,-0.954198,-85.190842,-14.091603
0.049072,-0.073486,0.331787,3.083969,51.022900,-2.671756
1.249268,0.545654,0.159180,7.770992,-59.969467,-20.122137
0.266602,0.385498,0.514160,43.740459,-21.328245,-18.847328
0.322021,0.031006,0.183594,16.137405,22.694656,-5.160306
0.459717,-0.076172,-0.093750,-5.450382,30.335878,0.045802
0.495361,-0.111328,-0.052734,-7.946565,29.175573,2.183206
0.471191,-0.033691,0.170166,6.000000,24.641222,1.763359
0.557861,0.181396,0.249023,21.427481,1.000000,-1.595420
0.681396,0.187256,-0.129639,15.786260,-17.312977,-3.167939
0.539062,-0.048828,-0.225586,13.519084,21.832062,1.435115
0.456055,0.168213,0.290771,34.458015,12.137404,-5.648855
0.557617,0.208496,-0.150879,7.412214,-17.931297,2.122137
0.429199,0.146484,0.064209,15.503817,19.977098,3.190840
0.525879,0.082275,0.034912,-7.916030,2.053435,12.259542
0.421387,0.072998,0.090820,10.732824,24.694656,6.755725
0.384521,0.033447,-0.088867,-1.091603,24.496183,16.488550
0.416992,0.201660,-0.013428,8.198473,-2.969466,6.694656
0.385254,0.209229,-0.073242,-7.465649,-0.870229,6.366412
0.413818,0.181396,-0.104004,-27.122137,-13.534351,12.648855
0.485596,0.192627,-0.045410,-28.603054,-24.167938,11.236641
0.550537,0.234131,-0.055176,-16.465649,-25.259542,11.824428
0.629639,0.307617,-0.139648,-10.541985,-20.832062,14.809160
0.699951,0.400146,-0.226562,-13.488549,-16.328245,12.190840
0.728516,0.553711,-0.248779,-60.603054,-15.022901,26.770992
0.928223,0.691406,-0.062012,-116.816795,-9.587787,64.473282
1.312012,0.735596,-0.038574,-114.587784,-4.145038,79.366409
1.984314,0.890137,0.149170,-129.832062,77.076332,52.221375
1.881836,0.642090,0.155762,-136.572525,152.267181,79.549622
1.913330,0.604980,0.231445,-124.862595,165.603058,83.122139
1.984314,0.282715,0.267578,-96.862595,126.221375,54.000000
1.984314,0.031250,0.341064,-72.267174,97.870232,21.030535
1.984314,-0.189209,0.284180,-40.328243,42.992367,-3.175573
1.684082,-0.323730,0.327148,-10.114504,5.328244,-11.954199
1.250732,-0.326416,0.253906,7.015267,-15.038168,-30.312977
1.126709,0.131836,0.278564,30.763359,-29.366413,-26.190840
1.199951,0.305908,0.360596,45.580154,-46.519085,-11.427481
1.423096,0.349121,0.405518,66.801529,-67.534348,-1.305344
1.551270,0.464844,0.330322,76.206108,-91.557251,-5.778626
1.590332,0.298584,0.102051,70.862595,-130.648849,-29.320610
1.589355,0.069092,0.086670,73.832062,-137.694656,-69.496185
1.578125,0.192383,0.084961,87.534348,-138.305344,-80.816795
1.504883,0.494629,-0.064697,103.030533,-103.519081,-81.587784
1.367188,0.541748,-0.198730,77.938934,-57.015266,-69.435112
1.382324,0.603027,-0.326904,44.053436,-52.450382,-55.992367
1.434570,0.683350,-0.336182,17.366413,-27.847328,-31.709923
0.527100,0.337891,0.259277,17.290077,79.870232,4.412214
1.512451,1.111084,0.530518,31.000000,-26.083969,-10.114504
1.186768,1.115967,-0.476318,27.679390,-69.519081,-15.549619
0.260010,1.058838,1.984314,57.755726,36.381680,-4.328244
0.833740,-0.765137,-2.000000,-37.167938,48.916031,0.557252
0.824951,1.227295,1.366455,54.557251,-32.564884,-13.122137
-0.091309,0.027832,1.971924,27.152672,99.938934,4.274809
0.113281,-0.202881,0.996094,14.389313,101.190842,3.839695
0.345703,0.381348,1.811768,46.206108,74.877861,-1.152672
1.015625,0.543213,0.144287,27.091602,-55.068703,-12.374045
0.108154,-0.341553,-0.579590,-15.488549,59.091602,6.389313
1.231689,0.511963,0.242920,15.984733,-29.709923,-17.656488
0.184814,0.344482,0.613525,37.580154,15.534351,-8.709924
0.237549,-0.032715,0.240723,6.374046,41.000000,0.099237
0.408203,-0.125000,-0.080566,-7.732824,38.503819,1.679389
0.430664,-0.113770,-0.026367,-7.007634,43.114502,1.694656
0.355957,0.015625,0.178223,9.625955,51.885498,0.496183
0.375977,0.277100,0.336670,28.923664,29.954199,-4.938931
0.515625,0.356934,0.041504,21.580153,-11.282443,-8.755725
0.419922,0.042725,-0.201660,-8.763359,12.648855,2.282443
0.301025,0.078613,0.321289,2.526718,34.030533,-2.007634
0.430420,0.105957,-0.023193,-12.610687,-9.183207,-0.923664
0.301270,-0.029297,-0.010254,-3.145038,32.854961,9.030535
0.456787,0.029053,0.059814,4.656488,-1.740458,5.725191
0.352783,0.080322,0.085693,19.977098,29.572519,1.427481
0.348389,0.095703,-0.045166,11.000000,9.282443,10.053435
0.391846,0.211670,0.058838,10.244275,7.877862,3.213740
0.333252,0.134033,-0.050537,-8.656488,19.160305,7.549618
0.315186,0.055420,-0.136230,-26.312977,14.251908,15.404580
0.347656,0.056152,-0.104492,-18.297710,8.038168,22.664122
0.414795,0.128662,-0.136963,-1.030534,2.916031,22.038168
0.465332,0.174805,-0.170898,7.045802,-4.610687,15.122137
0.514893,0.240479,-0.153809,12.870229,-11.862596,12.160305
0.567871,0.341309,-0.143799,8.274809,-16.190840,11.580153
0.602539,0.399658,-0.224365,-16.908398,-14.893129,16.648855
0.645752,0.372559,-0.261963,-40.809162,-8.564885,24.412214
0.675781,0.398193,-0.273926,-95.679390,-2.633588,60.366413
0.953369,0.572266,-0.070312,-138.862595,9.160305,96.328247
1.189941,0.696045,0.012695,-137.450378,4.091603,74.419846
1.636719,0.853760,0.208984,-134.015274,-3.854962,30.450382
1.984314,0.643311,0.538086,-122.961830,98.320610,22.648855
1.984314,0.710449,0.574219,-146.511444,182.290070,82.366409
1.984314,0.370850,0.387939,-123.877861,149.465652,76.786263
1.984314,0.116455,0.358154,-97.145035,103.259544,37.213741
1.984314,-0.270508,0.311768,-56.679390,47.862595,-0.404580
1.877930,-0.572021,0.287598,-7.053435,0.618321,-6.465649
1.514648,-0.230469,0.309570,19.343512,-13.656488,-23.458015
1.144775,0.107666,0.360596,34.595421,-23.946566,-25.358778
1.167725,0.254883,0.381836,47.618320,-50.877861,-17.450382
1.379395,0.371826,0.406738,63.916031,-64.916031,-7.305344
1.470947,0.403809,0.328613,74.091606,-83.221375,-9.267176
1.527344,0.297119,0.154053,82.122139,-119.648857,-27.625954
1.583252,0.116455,0.041016,90.129768,-131.076340,-56.198475
1.509521,-0.062988,-0.028564,83.030533,-83.305344,-63.076336
1.300293,0.082275,-0.047852,94.809158,-49.809162,-71.366409
1.945068,0.527344,-0.851074,54.877861,-100.259544,-79.045799
0.775391,-0.197754,-0.884766,54.351147,45.152672,-54.343510
0.860840,-0.201172,0.071289,45.900764,89.076332,-22.030535
1.649414,-0.098633,-2.000000,-15.396947,36.717556,-4.572519
0.883545,1.600098,1.893311,63.244274,-29.534351,-12.519084
0.781738,-0.444824,-1.721191,-17.045801,115.893127,9.404580
1.582764,0.464111,-2.000000,-19.106871,-45.465649,-19.099237
1.387451,0.530029,-1.578369,-8.893129,-80.282440,-22.473282
1.063721,-0.086426,-2.000000,-28.648855,-35.679390,-12.572519
0.432129,-0.101074,0.285400,16.244274,71.068703,-5.267176
1.352783,0.499268,0.141602,8.412213,-68.343513,-13.618320
0.133545,-0.003174,0.220459,15.923664,39.923664,0.259542
0.902344,-0.166016,-0.489990,-26.259542,19.908398,3.183206
0.989258,0.159912,-0.376953,-14.045801,-19.526718,-5.778626
0.862793,0.272461,-0.088623,3.580153,-27.038168,-11.648855
0.754883,0.212646,-0.096191,3.809160,-23.381680,-11.465649
0.679932,0.059082,-0.229980,-9.564885,-10.389313,-1.992366
0.525635,-0.081299,-0.153320,-11.610687,23.709923,4.885496
0.371094,0.065918,0.209961,6.534351,38.244274,2.335878
0.500732,0.332031,0.127686,11.839695,-8.473283,-4.267176
0.458496,0.095703,-0.309814,-14.305344,1.503817,4.687023
0.379639,0.106201,0.240479,1.389313,20.427481,-3.068702
0.455566,-0.013916,-0.089111,-20.687023,-3.480916,6.450382
0.376465,-0.005371,0.070557,5.977099,26.816793,3.251908
0.390869,-0.073730,-0.054443,-4.022901,20.503817,12.961832
0.399902,0.077881,0.071045,17.900763,18.946566,2.824427
0.303955,0.063477,-0.041260,10.755725,27.312977,8.389313
0.327148,0.093506,-0.036865,5.503817,6.877862,9.916031
0.362549,0.127930,0.013916,6.717557,4.007634,7.068702
0.360840,0.101074,-0.011719,-2.732824,12.458015,11.671756
0.364258,0.073242,0.001465,-7.145038,19.305344,14.519084
0.327393,0.064941,-0.052979,-7.839694,22.618320,14.938931
0.290283,0.076172,-0.038330,-6.496183,19.832062,14.702291
0.277100,0.050293,-0.055664,-2.244275,12.259542,21.893129
0.332031,0.115479,-0.022217,0.442748,2.557252,25.030535
0.401611,0.211914,-0.007324,2.893130,-7.503817,19.832062
0.462158,0.205322,-0.042480,-3.045802,-16.366413,14.122137
0.528320,0.136230,-0.047363,-13.893129,-17.305344,12.053435
0.582520,0.068604,0.028564,-9.885496,-6.877862,15.664123
0.685547,0.241211,-0.098877,-85.519081,3.122137,77.015266
1.138916,0.620605,0.116699,-133.519089,5.366412,102.167938
1.609131,0.780518,0.273926,-115.053436,-13.702291,64.038170
1.984314,1.121826,0.712158,-130.068695,77.083969,0.396947
1.984314,0.757568,0.507324,-111.786263,152.305344,-17.687023
1.984314,0.771729,0.555908,-110.816795,120.839691,80.015266
1.984314,0.026123,0.357910,-76.603050,74.229004,26.206106
1.984314,-0.322998,0.190186,-17.045801,18.603054,-10.305344
1.829590,0.013916,-0.060791,16.709923,-5.923664,-21.358778
1.258789,0.198730,0.002686,38.053436,-17.129770,-24.977098
1.092041,0.342285,-0.017334,44.396946,-26.091602,-16.091602
1.139648,0.387695,0.000488,48.381680,-39.549618,-1.633588
1.294434,0.494873,0.024414,46.740459,-61.648853,1.068702
1.420654,0.400635,0.136719,47.351147,-76.389313,-15.732824
1.592529,0.289551,0.144043,81.389313,-123.251907,-39.381680
1.871094,0.357422,0.072266,95.541985,-142.122131,-49.244274
1.091553,0.420410,0.911865,116.885498,-49.244274,-47.381680
1.984314,0.815918,-0.192871,102.862595,-137.961838,-69.022903
1.254150,1.104248,0.908691,80.549622,-139.671753,-68.534348
0.280518,0.418213,1.984314,110.022903,-16.396946,-42.862595
1.856689,-0.250732,-2.000000,16.396946,36.893131,-15.320611
0.546143,1.037354,1.984314,92.694656,-36.381680,-12.526717
0.270996,-0.202393,0.647461,52.251907,119.618324,8.862596
0.409180,-0.296875,-0.292725,22.725191,119.786263,3.717557
0.298828,0.124023,1.163330,47.916031,59.412212,-2.854962
1.041260,0.628906,0.690918,29.335878,-91.793892,-12.923664
0.459961,-0.294922,-1.144287,2.854962,23.244274,-0.267176
1.448975,0.688965,0.375977,22.900763,-63.473282,-23.480917
0.428467,0.294922,0.405273,41.862595,-3.916031,-8.778625
0.628174,-0.070801,-0.016113,10.106871,36.030533,1.015267
0.737305,-0.153564,-0.255371,-4.541985,35.221375,1.801527
0.690186,-0.133789,-0.240967,-4.450382,31.549618,2.595420
0.612305,-0.023437,-0.036621,6.503817,23.251909,-0.458015
0.629639,0.237305,0.196533,21.625954,-4.832061,-12.885496
0.775879,0.383789,0.009277,13.770992,-42.603054,-18.641222
0.738281,0.128662,-0.313721,-12.122137,-16.984734,-4.351145
0.555420,0.101563,0.157227,5.236641,19.893129,-4.755725
0.640625,0.222168,0.037354,-3.267176,-15.877863,-3.068702
0.423828,0.047363,-0.171631,-6.725191,17.908398,5.106870
0.555420,0.175781,0.057861,-0.709924,-21.022902,-0.564885
0.458984,0.074707,-0.045898,-3.167939,-4.152672,-4.160306
0.575684,0.021729,-0.000732,-2.534351,-24.687023,-1.160305
0.606689,0.038818,0.130615,18.038168,-4.557252,-9.656488
0.503662,0.063232,0.075195,18.374046,11.809160,-3.656489
0.452148,0.116699,0.060547,17.381680,11.580153,-2.809160
0.432373,0.121582,0.100830,10.893129,15.152672,-4.366412
0.359131,0.069824,0.058838,1.572519,23.893129,0.022901
0.313965,0.006836,0.063965,-1.557252,26.610687,5.984733
0.288574,0.004883,0.094727,4.641222,29.175573,8.083969
0.281738,0.050781,0.113770,11.282443,33.251907,5.664122
0.237549,0.039795,0.111572,10.229008,38.908398,3.038168
0.179932,0.063965,0.046875,5.015267,34.656490,4.969466
0.191406,0.114014,-0.039551,-2.961832,21.954199,7.335878
0.246094,0.113037,-0.083740,-14.916031,9.503817,0.526718
0.248535,0.041748,-0.133301,-20.900763,1.633588,0.419847
0.281250,0.069580,-0.102295,-15.770992,-2.832061,14.259542
0.353516,0.190674,-0.114502,-12.251908,-2.877863,18.091602
0.378906,0.229492,-0.154053,-18.419847,-3.290076,13.038168
0.374023,0.188965,-0.186523,-37.732826,-7.709924,22.320610
0.544922,0.395752,-0.283691,-127.351143,-1.587786,85.160309
0.950439,0.599121,-0.331299,-138.053436,-11.709924,92.832062
1.384033,0.794434,-0.320313,-136.870224,-58.740459,58.175571
1.984314,1.264404,0.419189,-132.007629,42.328243,-22.435114
1.984314,1.036621,0.213379,-180.732819,230.839691,46.603054
1.984314,0.886475,0.190918,-153.503815,164.709930,87.603050
1.984314,0.167725,0.169189,-118.274811,100.427483,14.114504
1.984314,-0.388184,0.156494,-56.236641,53.274811,-15.221375
1.777344,-0.187744,0.562500,-7.007634,15.534351,-27.419847
1.133301,-0.111816,0.448975,24.832062,-6.480916,-36.351147
1.022949,0.193604,0.126709,19.167938,-27.595419,-29.488550
1.146484,0.032715,-0.164551,12.595420,-45.709923,-14.335877
1.735352,0.597168,0.874756,97.625954,-130.465652,-8.022901
1.704590,0.024902,-1.395020,32.404579,-103.526718,-5.236641
1.889648,-0.236328,-1.519043,48.251907,-103.496185,-37.557251
1.984314,0.113037,-2.000000,70.511452,-230.145035,-84.305344
0.725830,0.387207,1.984314,142.358780,-64.633591,-70.641220
1.984314,-0.146973,-2.000000,75.221375,-169.877869,-100.541985
1.823730,1.325928,0.169922,134.389313,-136.351151,-90.740456
1.283936,1.290039,1.048096,126.702293,-67.236641,-56.274811
1.570801,1.087646,-0.420166,73.404579,-79.442749,-24.083969
1.336914,0.269043,-2.000000,-16.732824,-8.175572,0.824427
0.969971,0.875732,0.743408,34.167938,86.236641,-3.213740
1.034912,0.143311,-1.402832,-37.282444,7.343512,1.297710
1.236328,0.718262,-0.169189,13.022901,-25.862595,-21.114504
0.684082,0.487061,0.272461,27.190840,1.229008,-11.480916
0.595947,0.194336,0.181885,20.885496,25.671755,-6.908397
0.586914,0.156982,0.202637,25.129770,37.083969,-7.145038
0.576660,0.303467,0.265869,37.694656,31.610687,-7.351145
0.665771,0.443359,0.090088,35.526718,4.137404,-6.473282
0.734863,0.330566,-0.239258,11.854961,-8.480916,-2.519084
0.538086,0.106934,-0.145508,-0.175573,29.503817,0.725191
0.525879,0.285645,0.300293,21.610687,21.854961,-13.610687
0.554687,0.149414,-0.137695,6.977099,-3.229008,-12.290076
0.367432,0.100098,0.217529,25.992367,29.000000,-13.511451
0.428955,0.111816,0.140137,7.076336,0.740458,-3.427481
0.343994,0.164551,0.153564,9.458015,18.549618,-6.572519
0.349365,0.136963,0.027832,-11.259542,1.641221,0.603053
0.380615,0.218506,0.143066,-6.267176,-3.931298,-9.885496
0.338867,0.144531,0.102539,-17.213741,9.030535,0.167939
0.378662,0.095947,0.139893,-14.961832,11.389313,4.931298
0.387207,0.065674,0.155029,-6.541985,16.297710,1.053435
0.343994,0.029541,0.125977,-2.717557,23.923664,4.824428
0.335449,0.010986,0.030518,-2.969466,20.488550,9.923664
0.363281,0.000488,-0.020264,-2.740458,12.190840,10.473283
0.402832,0.011475,0.038818,1.908397,7.305344,7.610687
0.416992,0.031738,0.057861,4.526718,10.465649,6.778626
0.410889,0.063721,0.000977,0.450382,14.832061,9.923664
0.401367,0.118652,-0.044922,-8.320611,16.152672,12.732824
0.376709,0.148682,-0.036133,-15.450381,14.900764,16.267176
0.374268,0.105957,-0.050293,-21.259542,12.664123,19.809160
0.378906,0.043701,-0.135742,-25.824427,11.572519,16.847328
0.354248,-0.032471,-0.198730,-18.412214,11.068703,20.229008
0.380371,0.034424,-0.190918,-1.419847,6.854962,28.679390
0.443604,0.221191,-0.100342,6.045802,4.587786,26.236641
0.469482,0.322266,-0.055420,-0.312977,4.229008,21.442749
0.510742,0.382813,-0.103027,-24.381680,-5.595420,19.801527
0.579834,0.356689,-0.253662,-45.244274,-20.488550,28.748091
0.798584,0.470947,-0.245850,-127.534348,-13.259542,81.083969
1.118652,0.686768,-0.101074,-143.541992,-3.183206,72.679390
1.254639,0.753662,-0.022949,-124.778625,-19.427481,24.603054
1.984314,1.161621,0.562256,-147.503815,45.595421,79.175575
1.984314,1.195557,0.454590,-167.549622,191.297714,108.419846
1.984314,0.713623,0.500000,-141.961838,178.511444,108.641220
1.984314,0.498779,0.286865,-100.381676,100.595421,47.137405
1.984314,-0.226318,0.192627,-77.679390,52.412212,5.946565
1.890869,-0.877441,-0.168945,-47.312977,41.931297,4.167939
1.984314,-0.603516,-0.198486,-6.580153,-75.786263,-23.503817
0.910889,-0.790527,-0.296387,16.648855,38.954197,-18.122137
1.083008,-0.555664,0.731201,60.129772,45.458015,-9.297709
1.984314,-0.410889,-2.000000,28.908398,-43.022900,-24.122137
1.736572,1.241943,1.406250,115.832062,-161.541992,-41.076336
1.327881,-0.703369,-0.513184,74.870232,-20.625954,-34.854961
1.984314,0.217285,-2.000000,58.763359,-173.740463,-79.816795
1.984314,0.580322,-1.679932,64.068703,-185.045807,-94.916031
1.849121,0.042480,-1.874756,46.374046,-117.580154,-94.885498
0.981201,0.040771,0.216309,95.786263,2.015267,-80.175575
1.649414,0.764893,0.140625,91.854965,-103.152672,-77.007637
0.500000,0.222656,-0.235840,65.770996,28.396946,-31.801527
1.464844,0.435547,-0.818848,3.114504,2.534351,-9.114504
1.244141,0.807617,-0.385254,8.160305,-10.534351,-11.030535
0.931885,0.776123,-0.027832,14.007633,-5.244275,-12.877863
0.817627,0.594727,0.030518,20.916031,-18.664122,-16.045801
0.850830,0.388672,-0.092285,29.671755,-38.633587,-21.221375
0.875000,0.175537,-0.345459,27.061069,-36.977100,-20.893129
0.719238,0.039795,-0.278320,24.259542,1.389313,-11.465649
0.607178,0.263428,0.186523,40.694656,22.206106,-12.213740
0.733643,0.402100,-0.046631,24.572519,-13.488549,-17.442749
0.541016,0.055664,-0.189453,4.099236,26.549618,-8.847328
0.524902,0.119873,0.216553,25.244274,9.465649,-19.641222
0.454102,-0.049072,-0.146973,8.862596,15.137404,-9.335877
0.501465,0.120850,0.124023,38.381680,-2.091603,-20.480917
0.398926,0.052979,0.048340,26.740458,18.282442,-12.862596
0.429687,0.153320,0.159912,21.969465,3.564885,-14.320611
0.356934,0.202393,0.251221,14.801527,13.801527,-16.076336
0.287598,0.143799,0.125000,-5.854962,14.038168,-7.496183
0.292725,0.081787,0.151855,-13.221375,-2.816794,-1.732824
0.343994,0.094238,0.144531,-5.587786,-9.984733,-4.206107
0.386719,0.027832,0.121582,-4.129771,-4.541985,3.320611
0.448730,0.029297,0.101563,0.213740,1.679389,6.122138
0.460937,0.040039,0.048340,6.938931,4.381680,3.442748
0.427979,0.033691,-0.016113,6.259542,4.770992,3.580153
0.406250,0.065186,-0.065186,-2.030534,-2.396947,9.160305
0.419189,0.121826,-0.053467,-14.748092,-5.389313,15.709924
0.434082,0.148437,-0.078369,-22.137405,-5.053435,17.908398
0.431641,0.143799,-0.158447,-28.236641,-5.549618,12.725191
0.387207,0.082275,-0.220703,-28.854961,-0.198473,13.916031
0.393311,0.051758,-0.211182,-19.893129,7.679389,24.335878
0.430176,0.097412,-0.194336,-12.755725,14.114504,25.404581
0.443115,0.180908,-0.157471,-9.282443,5.419847,21.442749
0.472412,0.292480,-0.200928,-15.625955,-14.038168,17.038168
0.540527,0.361572,-0.144775,-27.938931,-26.122137,14.374045
0.583008,0.458252,-0.208984,-108.076332,-17.694656,49.328243
0.742432,0.379395,-0.073975,-126.167938,10.725191,73.496185
0.819580,0.366943,-0.105225,-120.488548,31.900763,82.351143
1.241455,0.741943,0.109863,-128.908401,60.938931,88.221375
1.984314,0.955811,0.413574,-146.045807,110.885498,69.664124
1.984314,0.927979,0.400635,-153.419846,179.832062,83.427483
1.984314,0.882568,0.233154,-137.106873,171.351151,70.190842
1.984314,0.675537,0.161865,-118.175575,127.244278,36.633587
1.984314,0.056396,0.190186,-79.343513,76.251907,17.580153
1.971680,-0.313232,0.707031,-10.213740,-7.496183,-3.091603
0.915283,-0.353271,0.816895,18.129770,53.946564,12.312977
1.536133,0.143066,-0.029297,-15.480916,-70.122139,-19.007633
1.741943,0.167969,-1.823242,-44.129772,-60.221375,-19.740458
1.721924,0.724854,-0.421143,8.297709,-136.511444,-27.038168
0.339844,0.103760,1.984314,91.183205,-20.198473,12.320611
1.984314,-0.002197,-2.000000,8.748092,-60.679390,-10.748092
1.984314,0.667480,-0.712158,48.938931,-190.526718,-40.000000
1.984314,0.542725,-0.402100,74.824425,-196.938934,-52.816795
1.984314,-0.051270,-1.646484,61.992367,-131.358780,-67.862595
1.252686,-0.024170,0.448486,139.954193,-55.885498,-68.167938
1.805664,0.589355,0.036865,105.450378,-164.137405,-79.076332
0.683838,0.382080,0.322510,136.839691,-36.625954,-83.862595
1.214600,0.129395,-0.767090,60.213741,-40.862595,-73.427483
1.408691,0.396240,-0.649414,40.580154,-67.473282,-66.053436
1.294922,0.465820,-0.377686,20.664122,-47.839695,-40.083969
1.236572,0.467529,-0.357422,5.282443,-12.114504,-13.786260
1.133057,0.321045,-0.502197,-0.549618,19.167938,-4.854962
0.875488,0.106201,-0.549805,3.488550,54.687023,-6.083970
0.597900,0.150391,-0.230713,21.770992,58.183205,-12.809160
0.691650,0.341309,-0.016602,27.083969,1.442748,-18.198473
0.682129,0.100586,-0.420898,6.923664,4.358778,-10.221375
0.577881,0.105225,-0.029541,25.618320,23.129770,-12.633588
0.746338,0.149170,-0.164795,15.916031,-6.152672,-12.374045
0.571289,0.119141,-0.030029,46.603054,28.442749,-18.374046
0.610596,0.084961,-0.016113,38.267174,15.030535,-10.687023
0.550049,0.213623,0.031738,55.175571,17.503817,-17.946566
0.475098,0.214600,-0.114014,36.366413,13.412213,-10.931297
0.526855,0.295654,-0.130371,23.549618,-13.870229,-10.877863
0.548828,0.299072,-0.110107,14.709924,-18.160305,-12.076336
0.575684,0.211670,-0.029785,8.572519,-16.725191,-5.511450
0.608398,0.133545,-0.044678,9.732824,-11.435115,1.351145
0.613770,0.113525,0.010010,14.755725,-0.687023,2.992366
0.539551,0.089600,0.095703,11.816793,9.213740,4.816794
0.466553,0.124268,0.146973,6.000000,11.015267,6.687023
0.417480,0.134521,0.136719,-1.068702,6.458015,10.229008
0.448486,0.094482,0.110107,-7.091603,2.916031,14.152672
0.490967,0.057129,0.140381,0.244275,2.832061,8.290076
0.490723,0.056885,0.090820,8.290076,-1.488550,3.679389
0.501465,0.131348,0.123291,15.328244,-4.854962,1.290076
0.474365,0.178467,0.107178,14.900764,0.274809,4.190840
0.440186,0.186523,0.135742,7.427481,11.519084,10.687023
0.358643,0.127930,0.102539,-3.847328,24.297710,19.351145
0.295166,0.084473,0.099854,-8.625955,27.083969,28.251909
0.266113,0.080811,0.082764,-3.595420,21.893129,29.328245
0.232910,0.096680,-0.031982,-2.221374,12.404580,20.312977
0.230957,0.030762,-0.093262,-2.763359,6.061069,21.534351
0.289063,0.081543,-0.176025,-13.206107,1.312977,27.076336
0.349121,0.151855,-0.179932,-25.541985,2.740458,24.290077
0.288086,0.294189,-0.299072,-80.671753,5.870229,39.366413
0.406494,0.449707,-0.212402,-192.396942,28.106871,102.969467
0.547363,0.313477,-0.355713,-162.152664,19.007633,95.366409
0.691162,0.252441,-0.356445,-166.557251,-11.748092,94.465652
1.204834,0.758545,-0.399902,-147.870224,-54.839695,85.465652
1.984314,1.352295,0.455566,-114.221375,97.076332,-3.648855
1.984314,1.227295,0.371094,-159.931305,208.374039,82.396950
1.919189,0.929687,0.348877,-159.145035,212.763351,91.916031
1.984314,0.639404,0.397949,-111.320610,69.580154,1.671756
1.984314,-0.226807,-0.551025,-80.015266,-3.809160,-16.679390
1.922852,-0.214355,1.984314,18.877863,17.114504,-1.458015
0.395508,-1.072754,1.511230,-37.931297,102.839691,-14.679389
1.704102,0.480469,-1.209717,16.038168,-97.351143,-38.526718
0.534180,0.279053,1.984314,70.229004,-4.587786,3.923664
0.706055,0.296143,1.984314,93.381676,-9.541985,14.053435
1.423828,0.606934,1.197510,107.954201,-117.076332,2.557252
1.632568,0.034424,-1.009521,38.763359,-132.885498,-12.809160
1.404053,0.382080,1.562500,127.503815,-57.580154,-22.488550
1.638428,-0.246582,-0.855713,66.969467,-123.206108,-37.908398
1.914795,0.299805,0.091797,134.282440,-150.259537,-71.511452
1.378418,0.555664,0.509277,164.396942,-110.923668,-72.977097
1.138184,0.639160,0.474854,153.061066,-76.923668,-66.877861
1.016357,0.651611,0.147461,141.534348,-60.473282,-67.229004
1.067627,0.732910,-0.016357,116.770996,-70.740456,-65.847328
1.173584,0.625732,-0.289063,77.603050,-73.404579,-55.435116
1.222656,0.312256,-0.401611,33.083969,-32.343510,-24.190840
1.049316,0.199219,-0.051270,13.297709,29.961832,-6.625954
1.041992,0.343262,0.044434,12.343512,9.786260,-17.061069
0.831543,0.029785,-0.390381,0.717557,22.610687,-8.519084
0.761719,0.137939,0.104492,31.473282,5.122138,-14.694656
0.792969,0.124023,-0.151611,10.984733,-2.129771,-6.641222
0.823975,0.318115,0.033203,29.259542,-11.740458,-18.358778
0.731689,0.147705,-0.071289,3.770992,13.335877,-14.152672
0.745117,0.123047,0.041260,2.770992,4.854962,-12.946565
0.640137,0.081787,0.074951,10.969465,20.259542,-15.435115
0.520752,0.028320,0.036133,7.312977,28.320610,-6.625954
0.469482,0.040527,0.012695,4.648855,21.007633,-1.404580
0.446045,0.103271,0.055176,5.335878,12.167939,-3.687023
0.432617,0.174316,0.024902,2.427481,7.458015,-5.366412
0.433594,0.183105,-0.041016,-1.305344,7.541985,-6.091603
0.424072,0.158447,-0.079590,-0.847328,7.259542,-9.076336
0.403809,0.104736,-0.041260,2.328244,9.519084,-8.870229
0.389404,0.029297,-0.027832,6.801527,16.763359,-3.900763
0.365234,-0.030273,-0.069580,8.007633,21.282442,1.381679
0.362305,-0.017578,-0.101074,6.954198,15.480916,5.709924
0.366455,0.017090,-0.069824,6.778626,11.534351,3.541985
0.350098,0.044678,-0.058594,3.648855,9.603053,1.587786
0.339600,0.096436,-0.085937,2.488550,7.427481,1.885496
0.358887,0.120850,-0.131592,-1.320611,1.870229,3.404580
0.403320,0.081543,-0.115967,-4.572519,-3.511450,4.381680
0.447754,0.055664,-0.036377,1.725191,-1.221374,-0.977099
0.425781,0.071533,-0.029785,8.106871,1.854962,-2.809160
0.420410,0.180420,-0.112793,3.610687,-1.358779,2.274809
0.460205,0.206787,-0.132812,-0.358779,1.236641,16.465649
0.519775,0.212646,-0.154541,-10.664123,7.145038,21.954199
0.518555,0.177979,-0.105225,-18.954199,10.854961,17.076336
0.484863,0.139160,-0.093750,-18.488550,9.381680,18.007633
0.491943,0.225098,-0.077393,-17.625954,-4.412214,15.931297
0.551514,0.280762,-0.058350,-14.251908,-16.824427,11.786260
0.638672,0.330322,-0.192383,-27.648855,-28.244274,11.320611
0.642090,0.382080,0.105713,-127.709923,30.335878,70.633591
0.694824,0.442139,0.516357,-119.106873,47.679390,67.137405
1.358154,0.216309,-1.023926,-174.053436,-13.679389,33.106869
0.930420,0.513672,1.375244,-106.564888,65.503815,75.977097
1.984314,0.863525,1.984314,-111.977097,193.946564,103.931297
1.902100,-0.355713,0.279053,-171.687027,248.175568,91.068703
1.984314,1.056396,-1.320068,-104.671753,35.862595,44.450382
1.856934,-0.068848,1.984314,-65.038170,198.908401,20.816793
1.984314,-0.444824,-1.876465,-102.809158,80.809158,2.152672
1.984314,-0.435303,-2.000000,-65.404579,15.664123,-13.694656
1.406250,-0.124756,-0.952148,-36.328243,73.862595,-4.167939
1.022217,0.402100,1.652100,53.931297,44.221375,10.137404
1.625000,0.160156,-0.891846,-13.496183,-81.618324,-1.809160
1.038086,0.538086,1.202148,63.687023,-30.664122,-1.351145
1.212891,0.003662,0.086426,17.580153,-26.625954,4.435114
1.739014,-0.119385,-0.150879,24.297710,-80.282440,-22.839695
1.796143,-0.145752,-0.065674,50.496181,-113.297707,-41.000000
1.737549,-0.097412,-0.078125,69.503815,-105.595421,-56.816795
1.588867,0.013916,-0.189697,71.557251,-73.595421,-64.900764
1.342773,0.264893,0.033936,84.091606,-41.427483,-77.687019
1.250732,0.517334,0.090820,104.793892,-56.679390,-92.938934
1.297363,0.409180,-0.271240,88.030533,-62.587788,-87.641220
1.098877,0.261719,-0.083252,83.129768,-3.129771,-64.305344
1.138428,0.520996,-0.004883,80.625954,-11.931297,-41.893131
1.018799,0.374268,-0.377197,34.564884,28.938931,-7.557252
0.989502,0.473145,-0.088135,21.763359,31.053434,-8.992367
0.772949,0.253174,-0.238037,-3.946565,48.648853,-7.297710
0.750732,0.206787,-0.155029,11.671756,7.206107,-12.946565
0.697998,0.101318,-0.079590,30.167938,3.679389,-17.320610
0.707275,0.092285,-0.019531,35.946564,2.793893,-14.786260
0.733154,0.250000,0.032715,41.992367,-0.282443,-18.374046
0.674316,0.294922,0.056885,34.114502,12.541985,-15.702291
0.615234,0.258545,0.066162,14.564885,21.083969,-8.458015
0.584717,0.211914,0.072021,7.778626,14.778625,-8.435115
0.596191,0.167480,0.036377,6.717557,4.916030,-12.351145
0.616943,0.133789,0.055664,10.145039,0.587786,-13.992367
0.637451,0.120361,0.038330,13.106871,-0.427481,-13.145039
0.640381,0.119873,0.060303,14.900764,3.236641,-13.977099
0.595947,0.128662,0.040283,12.450381,6.862596,-13.358779
0.535645,0.160400,0.015869,5.435114,8.068703,-10.442748
0.502197,0.180664,0.023437,-2.557252,5.816794,-7.473282
0.474854,0.136719,0.004639,-6.809160,6.389313,-6.389313
0.449707,0.052002,0.031250,-7.061069,8.152672,-3.160305
0.417236,0.020020,0.050293,-1.389313,15.229008,1.030534
0.398193,0.025635,0.083252,3.198473,23.534351,6.129771
0.361084,0.065430,0.038330,3.656489,34.244274,10.244275
0.299316,0.079346,-0.015381,0.702290,35.396946,9.450381
0.245605,0.077637,-0.090576,-6.320611,23.641222,8.893129
0.266846,0.067871,-0.089844,-11.190840,6.824428,7.801527
0.315674,0.056396,-0.083496,-11.763359,-4.610687,4.022901
0.348389,0.042725,-0.038330,-10.870229,-8.190840,5.687023
0.370117,0.076416,0.023193,-0.893130,-4.961832,12.603053
0.375244,0.077637,-0.012695,0.404580,7.152672,17.343512
0.344482,0.085449,-0.075195,-4.709924,20.206106,18.381680
0.286621,0.171875,-0.140137,1.053435,17.473282,17.282442
0.491455,0.235840,-0.437500,-15.656488,-33.625954,15.335877
0.745361,0.456787,-0.814209,-116.694656,-34.992367,40.343510
0.463867,0.873779,1.114746,-112.106873,-21.496183,64.282440
1.294678,0.654297,-1.387207,-168.366409,-94.740456,54.702290
1.655029,0.801758,-2.000000,-164.900757,-85.129768,15.755725
1.413818,1.559326,1.310791,-88.595421,-146.877869,39.129772
1.984314,0.321533,1.158936,-115.511452,129.412216,142.152664
1.984314,1.359375,0.113037,-149.702286,140.610687,57.564884
0.976074,0.435791,1.984314,-46.427483,197.358780,103.427483
1.984314,0.597412,1.984314,-14.603053,114.473282,28.854961
1.969727,0.086670,1.884277,9.916031,15.648855,-10.351145
1.984314,-0.282227,-0.692627,-23.473282,-58.389313,-19.450382
0.849854,-0.179443,-0.003906,22.633587,55.282444,-21.564886
1.656006,0.090820,-0.270996,11.870229,-65.908394,-23.969465
1.215088,0.353516,0.799072,88.259544,-71.534348,-4.160306
1.148926,0.272461,0.599609,79.358780,-41.358780,-2.244275
1.275879,0.216064,0.359619,66.358780,-47.580154,-26.900763
1.333984,0.041504,0.248291,74.122139,-60.839695,-53.488548
1.426758,0.015625,0.246582,85.511452,-92.923668,-73.221375
1.541016,0.337402,0.074951,111.679390,-113.885498,-97.213737
1.587158,0.393311,-0.067383,97.282440,-90.076332,-94.969467
1.273682,0.367676,-0.101318,86.732826,-17.687023,-87.351143
1.159912,0.696533,0.208496,108.557251,-33.297710,-83.358780
1.104492,0.680176,-0.319824,78.213737,-30.244274,-62.480915
0.948975,0.670410,-0.048340,86.259544,-6.572519,-41.992367
1.031006,0.436035,-0.112305,30.458015,14.389313,-8.534351
0.936035,0.452637,-0.061279,34.358780,45.038166,-6.824428
0.753174,0.229248,-0.204346,2.916031,62.725189,-8.664123
0.657959,0.219727,-0.083740,15.534351,25.648855,-16.343512
0.573730,0.184082,-0.121338,19.938931,7.717557,-17.763359
0.623535,0.156006,-0.085205,12.656488,-12.267176,-13.229008
0.744385,0.225098,-0.032471,14.167939,-22.435114,-18.244274
0.778809,0.224609,-0.004639,13.160305,-10.717557,-20.824427
0.740479,0.178467,0.038330,12.687023,7.595420,-14.137404
0.684326,0.157715,0.025146,12.465649,17.236641,-7.633588
0.620850,0.172607,0.036377,15.000000,17.786259,-7.114504
0.576172,0.182617,0.044189,15.358779,11.954199,-6.526718
0.553711,0.181641,0.035645,10.641221,7.396946,-6.229008
0.533203,0.157227,0.048096,6.015267,5.496183,-4.977099
0.514160,0.165283,0.051514,4.458015,4.801527,-4.145038
0.497314,0.172607,0.068848,4.320611,9.702291,-3.381679
0.454102,0.145752,0.082275,4.664122,15.091603,-2.770992
0.406738,0.125977,0.031982,4.534351,16.236641,-1.274809
0.382568,0.116211,0.040771,4.748092,15.152672,-0.664122
0.358887,0.093262,0.030518,1.145038,14.198473,0.961832
0.353760,0.082031,0.003662,-3.877863,13.664123,7.923664
0.375732,0.095947,-0.024414,-1.351145,10.282443,9.877863
0.374756,0.089111,0.004395,3.709924,9.511451,8.832061
0.349854,0.114990,0.001709,7.297710,11.282443,10.389313
0.352295,0.154785,-0.061768,5.679389,9.885496,12.900764
0.355713,0.104736,-0.133789,-3.045802,12.175572,13.725191
0.343750,0.024170,-0.136230,-18.534351,20.839695,19.503817
0.321289,0.055664,-0.118408,-15.610687,23.656488,22.206106
0.281738,0.155029,-0.190918,-9.938931,6.717557,21.488550
0.320313,0.246094,-0.212402,-19.435114,-13.015267,19.511450
0.180420,0.279297,-0.221680,-98.770996,27.900763,48.954197
0.169189,0.329590,0.209961,-129.893127,50.519085,70.511452
0.865967,0.137207,-1.320068,-159.534348,-25.770992,50.549618
0.009277,0.278320,0.905029,-132.259537,91.450378,78.045799
0.301514,0.871826,1.984314,-136.206100,81.786263,99.671753
0.830566,0.315918,0.167480,-191.778625,-6.442748,83.977097
1.984314,1.652832,-0.471191,-91.519081,-94.450378,73.893127
1.984314,0.000977,-1.312744,-190.412216,248.175568,81.671753
1.984314,0.681641,-0.971680,-167.740463,114.824425,71.076332
1.984314,0.656006,-0.146973,-108.045799,-7.687023,8.793893
1.984314,-0.333984,-1.293945,-96.358780,17.809160,-18.549618
1.573486,-0.681641,-0.270996,-14.770992,95.022903,-4.740458
1.623535,-0.069336,1.194336,48.244274,-65.137405,-30.916031
0.811768,-0.114746,-0.099121,23.114504,34.603054,-11.076336
1.532715,-0.024902,-0.160645,2.473282,-47.587788,-19.938931
1.600586,0.308594,0.490479,57.251907,-100.038170,-20.358778
1.567871,0.483887,0.601562,84.572517,-123.076332,-25.916031
1.642090,0.409424,0.514893,95.053436,-147.259537,-41.694656
1.693848,0.083984,0.218506,87.732826,-138.206100,-57.076336
1.650635,-0.119629,0.025146,90.549622,-93.740456,-71.885498
1.401367,0.202881,0.181152,120.351143,-68.923668,-80.977097
1.371826,0.730225,0.091797,128.114502,-89.778625,-87.938934
1.284912,0.565918,-0.258057,84.435112,-46.671757,-78.236641
1.054688,0.607666,0.085205,110.229004,-30.496183,-73.679390
1.070557,0.499756,-0.304199,64.206108,-43.381680,-39.618320
1.008057,0.586914,-0.114258,59.679390,-6.625954,-1.244275
1.071533,0.574463,-0.319336,7.526718,23.045801,8.954199
