ax,ay,az,gx,gy,gz
0.942383,1.290527,1.824707,29.572519,-3.129771,-3.458015
0.526367,1.017090,1.984314,27.480917,22.862595,2.473282
0.171875,0.693604,1.984314,20.419847,47.458015,7.229008
-0.125488,0.313232,1.984314,12.938931,73.091606,10.236641
-0.343262,-0.116455,1.984314,2.954198,92.274811,12.419847
-0.441650,-0.536621,1.984314,-8.954199,99.923668,13.809160
-0.383789,-0.885986,1.984314,-20.885496,100.389313,13.625955
-0.215088,-1.185059,1.984314,-33.297710,95.557251,11.572519
0.021240,-1.378906,1.295898,-46.931297,70.526718,4.458015
0.339355,-1.436523,0.159180,-50.190838,47.633587,-0.854962
0.712891,-1.354004,-0.981689,-51.809162,21.221375,-7.282443
1.117188,-1.183105,-2.000000,-49.603054,-6.061069,-13.618320
1.529785,-0.931641,-2.000000,-45.206108,-31.366413,-18.893129
1.908447,-0.584473,-2.000000,-38.167938,-53.343510,-23.862595
1.984314,-0.184814,-2.000000,-27.801527,-68.175575,-27.648855
1.984314,0.217529,-2.000000,-15.343512,-75.221375,-29.786259
1.984314,0.628418,-2.000000,-6.442748,-77.954201,-29.984734
1.984314,1.031006,-2.000000,1.900763,-71.419846,-29.717558
1.984314,1.300781,-1.979248,15.091603,-40.687023,-24.816793
1.918945,1.406250,-0.905762,19.610687,-14.603053,-21.946566
1.574707,1.420654,0.235596,23.801527,18.038168,-18.358778
1.176270,1.378174,1.285889,21.870230,47.488548,-14.137404
0.795410,1.225586,1.984314,11.862596,72.374046,-10.694656
0.440674,0.944824,1.984314,-2.343511,93.236641,-9.190840
0.105713,0.566650,1.984314,-5.442748,117.870232,-9.290076
-0.172852,0.177979,1.984314,-2.404580,136.206100,-9.923664
-0.348633,-0.180908,1.984314,0.053435,147.786255,-12.114504
-0.423340,-0.552979,1.984314,-3.183206,151.847336,-12.244275
1.593018,-0.751465,-2.000000,-17.038168,124.885498,-16.984734
1.934326,-0.366455,-2.000000,-30.351145,94.541985,-20.603054
1.984314,0.055664,-2.000000,-45.458015,56.786259,-26.129770
1.984314,0.391602,-2.000000,-55.687023,27.473282,-30.419847
1.984314,0.692627,-2.000000,-51.038166,-2.801527,-35.511452
1.984314,1.026367,-2.000000,-28.664122,-24.679390,-42.473282
1.984314,1.308105,-1.574219,-1.977099,-34.793892,-50.076336
1.807861,1.487549,-0.450195,18.099237,-36.633587,-53.862595
1.389893,1.543701,0.636963,30.725191,-39.022900,-52.129772
0.974365,1.468018,1.707275,38.656490,-43.450382,-47.145039
0.585937,1.264160,1.984314,51.786259,-25.251909,-37.854961
0.225830,0.984619,1.984314,54.755726,-3.503817,-30.022902
-0.097412,0.614502,1.984314,55.534351,24.572519,-22.374046
-0.328125,0.144531,1.984314,54.198475,52.656490,-15.839695
-0.426514,-0.342529,1.984314,55.244274,79.000000,-10.908397
-0.354248,-0.749756,1.984314,55.679390,103.274811,-9.343512
-0.167969,-1.040527,1.984314,50.099236,121.061066,-9.137404
0.099121,-1.199463,1.458252,40.503819,128.389313,-10.580153
0.435303,-1.211670,0.183105,25.702290,126.450378,-12.893129
0.825195,-1.111084,-1.110352,11.083969,112.633591,-16.007633
1.272217,-0.924805,-2.000000,-5.656488,70.885498,-24.480917
1.736328,-0.563232,-2.000000,-10.427481,32.458015,-32.312977
1.984314,-0.075439,-2.000000,-9.297709,-8.847328,-41.610687
1.984314,0.403076,-2.000000,-4.435114,-45.877861,-51.816795
1.984314,0.919678,-2.000000,5.664122,-78.450378,-61.618320
1.984314,1.343018,-1.961426,25.244274,-103.320610,-71.152672
1.935547,1.539307,-0.438232,50.755726,-112.717560,-78.519081
1.525146,1.613037,1.140137,76.610687,-107.755722,-85.954201
1.041992,1.430176,1.984314,97.053436,-88.648857,-91.213737
0.575439,1.137451,1.984314,117.931297,-57.549618,-94.725189
0.238525,0.802002,1.984314,136.175568,-1.519084,-95.801529
0.001465,0.390625,1.984314,139.061066,31.343512,-89.740456
-0.058594,-0.018066,1.984314,134.954193,72.396950,-51.801525
0.026611,-0.157959,1.984314,116.862595,101.816795,-56.213741
-0.076416,-0.454346,1.976074,119.732826,90.358780,-66.015266
0.115479,-0.273193,0.748779,91.389313,66.419846,-76.503815
0.397461,-0.092041,-0.432617,55.496181,31.435114,-70.259544
0.835205,0.113281,-1.525879,3.709924,14.847328,-63.007633
1.257324,0.144287,-2.000000,-43.740459,13.320611,-72.396950
1.561035,0.122803,-2.000000,-75.267174,10.404580,-88.641220
1.797119,0.217285,-2.000000,-75.450378,-30.671755,-108.687019
1.977295,0.456787,-2.000000,-60.374046,-58.671757,-118.755722
1.984314,0.762939,-2.000000,-46.221375,-82.000000,-124.923668
1.984314,1.056641,-2.000000,-37.511452,-98.427483,-129.816788
1.984314,1.331299,-2.000000,-33.923664,-107.465652,-133.022903
1.869385,1.560059,-1.687988,-40.778625,-109.450378,-132.358780
1.538330,1.763916,-0.525635,-54.977100,-106.236641,-127.312981
1.182617,1.868896,0.653564,-70.022903,-100.664124,-118.396950
0.843262,1.814941,1.702393,-91.106873,-87.259544,-110.458015
0.508545,1.640137,1.984314,-112.198471,-67.847328,-106.603050
0.179687,1.395020,1.984314,-128.000000,-18.160305,-102.053436
-0.114014,1.150146,1.984314,-136.328247,11.664123,-102.068703
-0.360107,0.871094,1.984314,-141.916031,38.137405,-101.793892
-0.544434,0.585693,1.984314,-153.137405,56.603054,-100.465652
-0.634766,0.327881,1.984314,-164.496185,65.641220,-99.862595
-0.622559,0.050537,1.984314,-172.961838,66.022903,-102.267174
-0.519775,-0.225342,1.984314,-181.916031,58.061069,-106.572517
-0.360352,-0.395508,1.614258,-184.175568,47.076336,-111.175575
-0.165771,-0.434326,0.585205,-187.847336,30.038168,-114.427483
0.087646,-0.387207,-0.458740,-193.633591,13.641221,-116.824425
0.359863,-0.293701,-1.517578,-197.732819,-25.862595,-123.633591
0.614990,-0.214600,-2.000000,-193.328247,-41.877861,-124.961830
0.910645,-0.080811,-2.000000,-183.885498,-64.183205,-126.122139
1.201416,0.078369,-2.000000,-170.152664,-83.679390,-129.526718
1.447998,0.217041,-2.000000,-154.183212,-98.488548,-135.282440
1.617432,0.330322,-2.000000,-136.671753,-106.183205,-139.083969
1.709229,0.432129,-2.000000,-117.366409,-101.480919,-137.618317
1.739746,0.625244,-2.000000,-98.114502,-94.717560,-132.916031
1.714844,0.843750,-2.000000,-81.396950,-86.961830,-124.404579
1.654541,1.039063,-2.000000,-68.450378,-85.358780,-114.541985
1.586182,1.175293,-2.000000,-63.938931,-89.076332,-105.068703
1.509277,1.255615,-2.000000,-55.251907,-84.977097,-94.473282
1.438232,1.323975,-1.743896,-55.748093,-85.679390,-86.755722
1.373291,1.316162,-1.204102,-55.465649,-85.580154,-81.099236
1.320801,1.319092,-0.660889,-50.908398,-81.473282,-75.969467
1.253418,1.447021,-0.139893,-35.145039,-73.557251,-73.259544
1.158203,1.579346,0.255615,-25.465649,-65.618324,-71.740456
1.019287,1.634766,0.687500,-26.633587,-57.366413,-68.145035
0.846924,1.636963,1.183105,-34.877861,-48.213741,-58.656490
0.677979,1.623047,1.683350,-41.251907,-37.381680,-46.061069
0.548584,1.529541,1.984314,-51.328243,-30.366413,-32.450382
-1.032959,-0.150635,1.984314,-52.770992,-4.977099,-17.656488
-0.935059,-0.205811,1.984314,-32.335876,3.977099,-12.641221
-0.826172,-0.175781,1.984314,-11.595420,15.259542,-9.183207
-0.777588,-0.129150,1.984314,-6.625954,33.267174,-9.977099
-0.797852,-0.195557,1.984314,-14.679389,48.702290,-6.778626
-0.804443,-0.283203,1.984314,-28.198473,56.412212,2.702290
-0.762451,-0.346680,1.984314,-33.305344,66.045799,13.458015
-0.667236,-0.375732,1.984314,-31.038168,71.526718,21.122137
-0.540039,-0.439453,1.984314,-32.503819,77.625954,23.717558
-0.456055,-0.540283,1.835205,-28.816793,86.267174,25.595419
-0.394287,-0.607910,1.541260,-36.145039,106.458015,32.709923
-0.352783,-0.561279,1.205566,-30.229008,119.251907,37.198475
-0.399170,-0.649658,0.742676,-40.664124,120.648857,42.274811
-0.388184,-0.788818,0.423828,-59.374046,115.175575,58.725189
-0.253418,-0.841309,0.221924,-61.656490,103.526718,73.770996
-0.049072,-0.809326,0.081787,-40.160305,100.389313,78.694656
0.143066,-0.687012,-0.142334,-4.656488,101.877861,72.534348
0.272217,-0.682861,-0.516113,21.931297,100.847328,60.381680
0.340332,-0.731445,-0.957031,49.877861,95.007637,50.694656
0.464844,-0.616455,-1.372803,79.427483,85.175575,44.580154
0.615967,-0.354980,-1.777588,89.480919,61.847328,32.648853
0.733398,-0.215820,-2.000000,71.679390,53.679390,23.595419
0.823975,-0.169434,-2.000000,37.145039,42.122139,17.038168
0.945557,-0.203613,-2.000000,12.496183,32.580154,22.435114
1.164307,-0.267090,-2.000000,-3.496183,26.068703,29.519083
1.370117,-0.214355,-2.000000,19.259542,17.083969,20.106871
1.504395,-0.064453,-2.000000,46.450382,5.786260,9.969465
1.612305,0.168457,-2.000000,56.061069,-0.038168,3.610687
1.686523,0.394287,-2.000000,54.206108,-7.534351,-2.564885
1.718018,0.601807,-2.000000,44.595421,-18.106871,-4.374046
1.725098,0.780029,-2.000000,41.160305,-46.519085,-9.099236
1.725586,1.005615,-2.000000,27.412214,-62.221375,-13.488549
1.685059,1.202637,-2.000000,8.229008,-79.351143,-17.854961
1.617676,1.397705,-2.000000,-6.809160,-94.702293,-17.366413
1.583984,1.590088,-1.939453,-10.656488,-109.793892,-16.137405
1.547607,1.639404,-1.428955,-13.854961,-117.748093,-16.740458
1.476563,1.585693,-0.856201,-13.076336,-115.916031,-11.854961
1.393311,1.599365,-0.314453,-1.213740,-107.870232,-3.877863
1.284912,1.687256,0.207275,14.236641,-97.519081,-0.419847
1.151367,1.809326,0.728027,26.061069,-89.000000,1.396947
1.019531,1.913818,1.212158,39.534351,-70.282440,3.816794
0.885742,1.964600,1.691406,39.137405,-66.557251,0.557252
0.760010,1.953369,1.984314,34.297710,-61.137405,-2.022901
0.641846,1.892334,1.984314,30.748091,-52.541985,-4.236641
0.532715,1.818115,1.984314,32.068703,-41.503819,-7.267176
0.405029,1.764893,1.984314,34.290077,-26.251909,-8.129771
0.260986,1.707520,1.984314,35.328243,-8.633588,-5.183206
0.106934,1.676758,1.984314,35.748093,4.351145,-1.358779
-0.028564,1.653564,1.984314,34.183205,13.885496,0.793893
-0.128662,1.588379,1.984314,28.618320,21.984734,5.534351
-0.202393,1.552246,1.984314,15.801527,49.740459,8.328244
-0.284424,1.500488,1.984314,9.870229,58.916031,8.236641
-0.373047,1.428711,1.984314,2.030534,70.274811,8.870229
-0.459229,1.360107,1.984314,-5.702290,74.961830,7.801527
-0.532959,1.320801,1.984314,-13.137404,75.610687,9.183207
-0.594971,1.254150,1.984314,-25.580153,76.603050,11.603053
-0.621094,1.166260,1.984314,-35.702290,77.435112,15.534351
-0.620605,1.169678,1.984314,-37.748093,78.793892,12.320611
-0.637451,1.119873,1.984314,-34.870228,80.259544,8.190840
-0.648193,1.027100,1.984314,-29.519083,81.984734,2.610687
-0.675781,0.911865,1.984314,-22.595419,93.893127,6.236641
-0.660400,0.949951,1.984314,-3.038168,100.122139,10.068703
-0.658691,1.036865,1.984314,4.900764,108.992363,9.221375
-0.698730,1.070068,1.984314,4.404580,111.022903,2.778626
-0.751709,1.044434,1.984314,-3.992366,111.870232,-0.473282
-0.790771,1.007813,1.984314,-13.427481,111.053436,3.106870
-0.808350,0.942139,1.984314,-25.618320,111.480919,7.656488
-0.777832,0.916992,1.984314,-32.221375,113.740456,10.946565
-0.776855,0.837646,1.984314,-25.702290,110.740456,-0.419847
-0.800293,0.765137,1.984314,-19.709923,109.305344,-1.450382
-0.782959,0.819092,1.984314,-21.244274,111.083969,-2.961832
-0.782471,0.945801,1.984314,-20.244274,111.259544,-5.099236
-0.801514,0.963867,1.984314,-28.007633,117.374046,-5.145038
-0.819580,0.910400,1.984314,-32.587788,120.938934,-2.694656
-0.804443,0.897949,1.984314,-25.900763,120.351143,-1.992366
-0.776123,0.931885,1.984314,-17.137405,120.480919,-2.740458
-0.747559,0.940430,1.984314,-9.381680,124.206108,-2.015267
-0.730225,0.937988,1.984314,0.251908,129.992371,-1.442748
-0.745361,1.002686,1.984314,6.557252,134.717560,-0.824427
-0.754395,1.165283,1.984314,7.938931,133.427475,-3.389313
-0.392822,-0.483154,0.135986,-9.106871,130.206100,-4.816794
-0.446533,-0.490967,0.312256,-20.671755,124.832062,-1.938931
-0.487305,-0.545654,0.525879,-26.114504,119.816795,-4.229008
-0.529297,-0.601074,0.775635,-23.412214,119.190842,-0.007634
-0.548828,-0.576416,0.985596,-8.030535,122.847328,4.000000
-0.618896,-0.523437,1.162598,2.152672,123.557251,2.916031
-0.712158,-0.501709,1.383545,7.595420,123.931297,6.045802
-0.802490,-0.428955,1.550537,10.664123,115.709923,5.312977
-0.862549,-0.361572,1.780273,9.519084,104.488548,4.916030
-0.905518,-0.283936,1.984314,5.770992,95.763359,3.374046
-0.935303,-0.254150,1.984314,-7.854962,96.801529,5.969466
-0.953613,-0.257324,1.984314,-6.839694,94.618324,8.145039
-0.993896,-0.214355,1.984314,-0.305344,93.305344,11.778625
-1.024902,-0.145508,1.984314,6.198473,90.694656,14.770992
-1.050781,-0.112305,1.984314,15.343512,87.198471,17.137405
-1.050537,-0.024902,1.984314,24.526718,82.404579,19.015266
-1.035645,0.099609,1.984314,34.038166,77.396950,18.519083
-1.016357,0.285645,1.984314,40.450382,71.862595,14.000000
-1.029053,0.357666,1.984314,36.931297,69.671753,8.587787
-1.072510,0.389404,1.984314,33.145039,66.610687,8.343512
-1.075195,0.442383,1.984314,26.396946,76.900764,13.320611
-1.030518,0.506836,1.984314,32.534351,69.274811,14.610687
-0.973633,0.567383,1.984314,42.465649,64.603050,12.648855
-0.940430,0.651367,1.984314,50.053436,64.671753,9.114504
-0.920166,0.757080,1.984314,53.595421,62.656490,5.969466
-0.924805,0.891113,1.984314,54.916031,58.183205,3.000000
-0.895996,0.967773,1.984314,53.320610,53.320610,0.816794
-0.869385,0.943359,1.984314,52.656490,50.816795,3.946565
-0.853516,0.908447,1.984314,65.656487,47.213741,7.511450
-0.818848,0.831055,1.984314,82.396950,45.106869,15.335877
-0.752441,1.078613,1.984314,120.435112,55.702290,20.343512
-0.647217,1.103760,1.984314,129.786255,56.030533,19.236641
-0.682129,1.382568,1.984314,176.885498,28.595419,6.702290
-0.644775,1.324707,1.984314,135.290070,43.358780,7.641222
-0.615479,1.500488,1.984314,142.312973,36.167938,6.969466
-0.646729,1.569824,1.984314,134.213745,30.893129,10.374045
-0.668457,1.548828,1.984314,121.755722,35.030533,15.106871
-0.689697,1.471680,1.984314,111.702293,25.343512,20.603054
-0.662842,1.434326,1.984314,111.946564,13.694656,28.709923
-0.589355,1.373047,1.984314,117.152672,7.740458,35.969467
-0.566650,1.416016,1.984314,128.900757,2.916031,40.045803
-0.584717,1.493164,1.984314,125.328247,22.938931,46.190838
-0.653076,1.512207,1.984314,107.503815,25.389313,51.694656
-0.718018,1.369629,1.984314,80.564888,22.183207,77.618324
-0.655518,1.185303,1.984314,74.740456,18.244274,93.664124
-0.648682,1.023682,1.984314,69.297707,19.038168,93.244278
-0.694824,0.981934,1.984314,100.244278,26.412214,93.343513
-0.772461,0.943359,1.984314,137.458008,33.938931,94.824425
-0.844482,0.993652,1.984314,159.396942,36.175571,97.541985
-0.905029,1.088135,1.984314,163.022903,29.167938,100.450378
-0.894287,1.085449,1.984314,148.335876,19.786259,108.763359
-0.839600,0.986816,1.984314,110.564888,30.412214,115.572517
-0.795166,0.883789,1.984314,87.519081,34.076336,113.297707
-0.751465,0.841797,1.984314,70.129768,35.641220,109.343513
-0.676514,0.843994,1.984314,44.473282,35.862595,99.900764
-0.633789,0.704834,1.984314,-6.381680,37.862595,90.755722
-0.586426,0.328857,1.984314,-58.320610,44.786259,92.251907
-0.510010,-0.142578,1.984314,-88.740456,46.419846,97.687019
-0.380615,-0.427979,1.851074,-92.137405,38.061069,96.679390
-0.235840,-0.532471,1.238770,-71.106873,29.564886,89.778625
-0.079834,-0.537109,0.637695,-37.374046,18.877863,87.923668
0.131592,-0.412109,-0.030762,-25.007633,-27.671755,83.183205
0.391357,-0.275879,-0.589111,-35.366413,-55.129772,78.045799
0.664795,-0.181885,-1.145020,-56.824429,-75.824425,69.618324
0.951660,-0.199463,-1.565186,-70.687019,-83.450378,64.083969
1.240967,-0.222900,-2.000000,-63.152672,-84.030533,52.931297
1.489014,-0.280029,-2.000000,-35.870228,-76.572517,37.221375
1.688965,-0.199951,-2.000000,7.435114,-72.480919,24.114504
1.790527,-0.001709,-2.000000,40.503819,-67.312981,11.679389
1.841064,0.384277,-2.000000,43.442749,-72.946564,3.335878
1.831543,0.723877,-2.000000,16.229008,-90.603050,-0.381679
1.800293,0.800781,-2.000000,-17.099237,-109.206108,-1.732824
1.832520,0.661865,-2.000000,-40.076336,-119.618324,13.183207
1.955811,0.507080,-2.000000,-36.641220,-117.992363,22.038168
1.984314,0.460449,-2.000000,-17.251909,-111.786263,18.236641
1.984314,0.487793,-2.000000,15.427481,-102.946564,9.175572
1.984314,0.684570,-2.000000,64.709923,-95.564888,-4.519084
1.984314,1.066650,-2.000000,97.488548,-83.511452,-15.786260
1.966064,1.413574,-2.000000,88.671753,-76.129768,-16.870230
1.800293,1.354004,-2.000000,58.770992,-79.900764,-4.480916
1.703125,1.169678,-2.000000,38.946564,-91.267174,13.030535
-0.181641,1.034180,1.984314,32.709923,-84.389313,33.328243
-0.176025,1.005371,1.984314,42.137405,-87.687019,34.946564
-0.232422,0.996094,1.984314,50.595421,-86.000000,35.022900
-0.320801,1.051270,1.984314,51.854961,-84.755722,34.893131
-0.407959,1.100830,1.984314,43.778625,-85.717560,31.427481
-0.462891,1.087158,1.984314,18.015266,-85.305344,38.160305
-0.432129,0.865234,1.984314,9.458015,-71.740456,43.938931
-0.379883,0.447510,1.984314,35.862595,-36.297710,29.450382
-0.473633,0.149170,1.984314,55.969467,-0.068702,30.618320
-0.535889,0.159180,1.984314,88.290077,21.320610,40.160305
-0.565918,0.232422,1.984314,86.389313,39.748093,52.312977
-0.544922,0.269287,1.984314,43.000000,36.312977,68.587784
-0.453369,0.200684,1.984314,12.977099,44.610687,76.381676
-0.388916,0.029053,1.984314,2.816794,62.404579,71.305344
-0.364014,-0.158936,1.965332,-13.946565,74.106873,64.603050
-0.291260,-0.348877,1.682373,-39.435116,69.610687,67.610687
-0.130127,-0.532227,1.368896,-71.160309,58.702290,75.404579
0.099854,-0.578857,1.010742,-108.244278,50.641220,85.709923
0.222168,-0.767578,0.620850,-117.290077,67.297707,75.793892
0.296143,-0.883789,0.170410,-91.992363,86.625954,62.587788
0.352539,-0.852295,-0.147949,-74.862595,83.404579,55.175571
0.484619,-0.687744,-0.633057,-75.717560,67.259544,56.389313
0.625977,-0.597168,-0.956787,-110.099236,58.320610,60.442749
0.800781,-0.669434,-1.288086,-142.610687,46.328243,59.603054
0.984131,-0.799561,-1.589355,-156.534348,34.206108,52.763359
1.117432,-0.811035,-1.768555,-151.534348,34.106869,36.038166
1.177246,-0.692139,-1.846191,-128.961838,44.427483,16.679390
1.128418,-0.624023,-2.000000,-123.954201,46.595421,8.847328
1.082764,-0.586914,-2.000000,-138.442749,36.946564,15.068703
1.102295,-0.638184,-2.000000,-145.312973,27.129770,23.709923
1.176025,-0.735596,-2.000000,-137.129776,5.641222,20.458015
1.255859,-0.787598,-2.000000,-116.641220,5.854962,16.664122
1.349609,-0.743896,-2.000000,-98.290077,2.114504,8.145039
1.380859,-0.626465,-2.000000,-91.160309,14.297709,1.183206
1.322266,-0.512939,-2.000000,-113.763359,12.984733,5.053435
1.329590,-0.440186,-2.000000,-139.435120,7.068702,14.099236
1.342773,-0.442383,-2.000000,-153.099243,14.610687,15.625955
1.341553,-0.567627,-2.000000,-165.007629,12.511451,16.961832
1.364990,-0.689697,-2.000000,-157.625961,7.351145,15.427481
1.385498,-0.706787,-2.000000,-127.633591,21.687023,8.137404
1.323975,-0.643066,-2.000000,-109.633591,13.213740,1.167939
1.234619,-0.543457,-2.000000,-115.412216,13.015267,1.213740
1.132080,-0.531006,-2.000000,-125.503815,14.725191,7.748092
1.071289,-0.562744,-2.000000,-123.595421,14.175572,12.709924
1.060059,-0.757324,-2.000000,-130.290070,12.038168,17.793894
1.074463,-0.813477,-2.000000,-112.480919,9.702291,18.725191
1.130127,-0.748291,-2.000000,-82.732826,13.076336,12.305344
1.129395,-0.706543,-2.000000,-57.900764,21.923664,3.564885
1.071045,-0.705811,-2.000000,-35.488548,32.167938,-1.076336
1.024414,-0.689209,-2.000000,-26.541985,27.114504,0.557252
1.011475,-0.664062,-2.000000,-22.099237,1.450382,-2.870229
0.972412,-0.626221,-2.000000,-22.694656,2.564885,-2.358779
0.942383,-0.671631,-2.000000,-24.297710,7.839694,0.450382
0.920410,-0.703613,-2.000000,-26.473282,3.839695,2.244275
0.920654,-0.712891,-2.000000,-28.412214,0.725191,2.152672
0.903809,-0.703613,-2.000000,-34.007633,-1.129771,0.923664
0.905273,-0.669434,-2.000000,-42.236641,-7.717557,0.839695
0.874756,-0.570312,-1.923828,-61.030533,-12.969465,5.045802
0.850342,-0.499023,-1.818359,-76.603050,-18.931297,5.900764
0.833252,-0.553711,-1.849121,-95.580154,-26.320610,12.961832
0.819824,-0.676514,-1.703857,-101.816795,-39.152672,13.129771
0.782959,-0.736816,-1.648438,-87.000000,-26.053434,12.061069
0.657471,-0.781494,-1.523438,-67.137405,-20.679390,9.618320
0.577881,-0.689697,-1.022705,-26.923664,-16.450382,5.664122
0.501953,-0.455322,-0.780029,14.045801,-9.458015,-3.198473
0.402588,-0.346191,-0.733643,12.587787,-10.694656,-3.870229
0.375244,-0.418701,-0.679443,-24.404581,-25.557251,4.480916
0.455566,-0.618652,-0.470215,-64.312981,-31.793894,13.541985
0.584717,-0.834473,-0.427002,-82.839691,-19.450382,14.007633
0.657959,-0.984375,-0.371094,-69.206108,-3.541985,5.068702
0.666504,-1.005127,-0.046631,-27.877863,7.595420,-12.664123
0.534424,-0.857666,-0.006836,8.893129,29.076336,-43.000000
0.351563,-0.801514,-0.068848,16.160305,20.343512,-23.374046
0.322754,-0.916992,0.155762,21.679390,5.832061,-19.297710
0.418457,-1.016113,0.178223,32.198475,-4.648855,-19.908398
0.470459,-0.988037,0.078369,33.152672,-7.740458,-27.740458
0.495117,-0.834961,0.194824,33.145039,0.068702,-24.091602
0.464355,-0.739990,0.138184,23.374046,17.503817,-20.488550
0.370850,-0.838379,-0.013184,-6.732824,25.213741,-10.793893
0.278076,-0.904541,-0.166992,-22.946566,30.396946,-2.122137
1.984314,0.354736,-2.000000,-21.847328,7.328244,-2.236641
1.984314,0.430420,-2.000000,-19.648855,-0.916031,-5.732824
1.984314,0.422119,-2.000000,-12.007633,-4.381680,-7.099236
1.984314,0.404053,-2.000000,8.068703,-6.656488,-11.068703
1.984314,0.437988,-2.000000,24.244274,-13.145039,-13.885496
1.984314,0.503662,-2.000000,26.358778,-12.358779,-10.183207
1.984314,0.646240,-2.000000,7.763359,-15.977099,-0.992366
1.984314,0.707031,-2.000000,-28.511450,-27.312977,10.335877
1.984314,0.569824,-2.000000,-61.312977,-31.725191,20.129770
1.984314,0.375732,-2.000000,-75.679390,-32.335876,20.305344
1.984314,0.333740,-2.000000,-64.648857,-21.122137,5.923664
1.984314,0.453857,-2.000000,-32.763359,-34.809162,-16.274809
1.984314,0.638428,-2.000000,-24.251909,-49.221375,-25.183207
1.984314,0.765625,-2.000000,-33.595421,-65.603050,-24.862595
1.984314,0.791260,-2.000000,-49.992367,-78.366409,-11.717557
1.984314,0.824707,-2.000000,-67.442749,-77.923668,-6.015267
1.984314,0.789551,-2.000000,-63.587788,-70.206108,-9.114504
1.984314,0.842529,-2.000000,-47.641220,-66.694656,-17.587786
1.984314,1.005859,-2.000000,-30.450382,-66.656487,-23.328245
1.984314,1.171143,-2.000000,-25.694656,-81.442749,-25.480917
1.984314,1.235107,-2.000000,-30.946566,-95.007637,-16.503817
1.984314,1.247803,-2.000000,-31.236641,-111.030533,-11.480916
1.984314,1.229492,-2.000000,-30.595419,-108.656487,-17.183207
1.984314,1.192383,-2.000000,-21.748091,-98.511452,-21.480917
1.978027,1.234375,-2.000000,-10.763359,-98.061066,-22.068703
1.914063,1.357666,-1.907715,3.938931,-99.839691,-22.656488
1.848877,1.474609,-1.621826,10.587787,-99.648857,-24.030535
1.771240,1.460449,-1.369385,7.984733,-101.717560,-18.534351
1.728516,1.366455,-1.055664,5.885496,-103.847328,-13.374045
1.712891,1.306152,-0.726318,13.625955,-106.114502,-12.793893
1.672119,1.315674,-0.298340,39.274811,-101.419846,-23.793894
1.597412,1.398682,-0.010010,74.908394,-89.167938,-35.221375
1.493408,1.437744,0.361328,85.885498,-86.137405,-43.038166
1.367188,1.423096,0.656494,93.076332,-75.297707,-40.801525
1.222656,1.346191,0.892334,91.801529,-60.000000,-34.511452
1.032715,1.312256,1.127686,85.137405,-45.984734,-21.000000
0.817871,1.401123,1.279541,80.648857,-24.725191,-5.549618
0.578857,1.492432,1.311523,69.717560,-5.587786,7.099236
0.343262,1.471191,1.366943,57.160305,3.229008,22.549618
0.160400,1.369873,1.472656,45.450382,13.076336,35.618320
0.001465,1.260254,1.570557,45.648853,20.564886,39.473282
-0.115723,1.220703,1.541260,40.396946,25.343512,48.305344
-0.145264,1.218506,1.489258,21.458015,-6.259542,52.625954
-0.067871,1.143555,1.677490,18.534351,-39.885498,49.969467
0.161621,1.051514,1.813721,24.053434,-86.908394,41.183205
0.555908,1.135254,1.799316,22.404581,-136.679382,36.793892
1.056396,1.286621,1.951172,73.206108,-169.183212,51.496181
1.573975,1.706299,1.797363,28.938931,-228.526718,49.358780
1.984314,1.984314,1.623779,-57.977100,-250.137405,33.244274
1.984314,1.772949,1.746582,-92.480919,-250.137405,44.404579
1.984314,1.984314,1.968994,-97.000000,-217.557251,94.732826
1.984314,1.984314,1.984314,-43.312977,-37.496181,-3.977099
1.984314,1.786621,1.984314,12.221375,115.687019,-28.290077
1.467773,1.698486,1.984314,52.664124,195.572525,-7.763359
0.748779,1.314941,1.984314,54.916031,195.099243,-25.450382
0.291504,0.724365,1.984314,43.992367,145.870224,-3.198473
0.169189,0.427490,1.984314,25.923664,100.366409,-3.030534
0.127930,0.139404,1.984314,22.679390,78.854965,-24.297710
0.111328,-0.263672,1.984314,27.969465,82.458015,-41.114502
0.119141,-0.479004,1.984314,41.129772,77.801529,-40.633587
0.224121,-0.607422,1.984314,49.923664,65.320610,-33.862595
0.349854,-0.577881,1.984314,53.351147,34.129772,-23.137405
0.491211,-0.435547,1.984314,22.992367,50.709923,-15.381680
0.482178,-0.565674,1.560059,-8.328244,74.137405,-11.503817
0.437500,-0.599854,0.951904,-40.801525,65.450378,-16.870230
0.365479,-0.624756,0.547119,-56.061069,55.213741,-43.343510
0.256592,-0.748291,0.042725,-51.389313,43.282444,-59.381680
0.229736,-0.897217,-0.428223,-35.496181,31.709923,-52.183205
0.311523,-0.938232,-0.951660,-20.022902,36.183205,-16.068703
0.502930,-0.858154,-1.408936,-5.603054,57.908398,21.297710
0.667480,-0.627686,-1.837158,-14.106871,79.328247,14.015267
0.567627,-0.725342,-2.000000,-14.358779,53.725189,-18.320610
0.485596,-0.877930,-2.000000,-15.793893,32.893131,0.473282
0.557617,-0.818115,-2.000000,-5.877862,2.725191,-22.923664
0.582520,-0.813232,-2.000000,4.106870,-20.290077,-45.961834
0.585937,-0.782959,-2.000000,0.427481,-41.198475,-53.549618
0.606201,-0.716797,-2.000000,-11.648855,-57.725189,-56.267174
0.679932,-0.713623,-2.000000,-17.366413,-71.702293,-42.984734
0.802979,-0.710693,-2.000000,-21.954199,-76.900764,-20.488550
0.960693,-0.677979,-2.000000,-9.740458,-67.160309,-18.068703
0.982910,-0.756348,-2.000000,2.534351,-49.175571,-19.580153
1.094482,0.979492,-1.296631,12.671756,-48.038166,-14.793893
0.970459,0.952637,-1.136963,17.129770,-45.229008,-6.931298
0.930176,0.956055,-1.014893,18.488550,-58.351147,10.015267
0.977783,0.996826,-0.935303,21.656488,-66.480919,26.366413
0.977783,0.963623,-0.849854,22.419847,-57.603054,33.335876
0.914062,0.928223,-0.815674,25.557251,-55.816795,39.274811
0.875000,1.049805,-0.782715,21.610687,-63.801525,39.076336
0.828613,1.121826,-0.746338,3.908397,-76.160309,34.236641
0.788330,1.079346,-0.539551,-11.122137,-92.793892,30.793894
0.800781,1.067383,-0.365479,-13.091603,-105.893127,20.877863
0.841553,1.120117,-0.194580,5.694656,-113.984734,9.274809
0.885742,1.198975,-0.048828,1.664122,-126.809158,9.465649
1.079346,1.679688,-0.107178,-34.587788,-131.595413,48.488548
1.421875,1.909180,-0.384521,-94.175575,-164.931305,87.282440
1.843018,1.807373,-0.626465,-124.931297,-226.305344,124.893127
1.984314,1.984314,-0.091553,-188.816788,-250.137405,230.419846
1.984314,1.935059,0.493164,-154.419846,-250.137405,248.175568
1.984314,1.984314,1.984314,-96.572517,-98.274811,103.114502
1.984314,1.172119,0.646240,-21.381680,205.694656,-71.557251
1.925781,1.984314,0.628174,42.061069,24.931297,-84.824425
1.679932,1.984314,1.910156,37.068703,-49.106869,-102.541985
1.195801,1.342529,1.984314,65.687019,-19.839695,-117.923668
0.581055,1.382080,1.984314,95.251907,-17.969465,-94.603050
0.324219,1.603271,1.984314,93.389313,-65.259544,-55.549618
0.365723,1.191650,1.984314,84.053436,-119.366409,-24.290077
0.672119,0.727783,1.984314,63.534351,-131.236649,-16.190840
0.902588,0.438232,1.984314,73.091606,-79.717560,-45.274811
0.802490,0.185303,1.984314,75.274811,-8.145039,-100.030533
0.409424,-0.105225,1.984314,84.068703,48.519085,-114.931297
0.036865,-0.176025,1.984314,101.931297,76.381676,-111.610687
-0.191895,-0.099365,1.984314,107.801529,80.076332,-73.977097
-0.238525,0.036377,1.984314,92.427483,82.709923,-38.610687
-0.234619,-0.070801,1.984314,57.038166,121.732826,-19.587786
-0.312744,-0.323486,1.984314,31.992367,140.885498,-6.694656
-0.408203,-0.515137,1.984314,-0.389313,151.374039,-11.564885
-0.572998,-0.651611,1.628906,-23.022902,144.297714,-26.045801
-0.642090,-0.720947,1.319580,-17.145039,120.190842,-40.206108
-0.596436,-0.876465,0.849609,-12.618320,83.618324,-25.625954
-0.347412,-1.004150,0.560059,-0.030534,77.038170,14.351145
-0.075928,-1.069824,0.266357,12.022901,109.465652,53.641220
0.083984,-0.967285,-0.100098,3.305344,134.091599,57.160305
-0.000488,-1.003662,-0.272461,-14.167939,150.473282,26.717558
-0.250000,-1.254395,-0.508057,-28.564886,147.770996,33.671757
-0.256348,-1.165771,-0.630127,-29.427481,124.198471,43.625954
-0.269287,-1.084229,-0.616699,-10.206107,88.290077,7.496183
-0.244873,-1.008545,-0.590576,4.984733,58.809162,5.732824
-0.132324,-0.928223,-0.544189,7.732824,42.610687,1.656489
-0.037109,-0.946045,-0.520264,0.824427,49.022900,2.732824
0.007324,-1.067871,-0.476074,2.213740,68.488548,14.419847
-0.005127,-1.161377,-0.436523,8.709924,96.007637,28.793894
-0.049561,-1.135742,-0.529785,6.969466,97.389313,40.282444
-0.130859,-1.132080,-0.666016,-4.572519,101.129768,47.748093
-0.205566,-1.146729,-0.696777,-17.473282,88.824425,53.351147
-0.208740,-1.044434,-0.595703,-23.145039,68.053436,55.534351
-0.115967,-0.904297,-0.704346,-51.923664,45.587788,51.282444
-0.074463,-1.076416,-0.865479,-108.198471,38.809162,50.610687
-0.093506,-1.229492,-1.011230,-126.641220,48.748093,51.183205
-0.099854,-1.370117,-1.426514,-99.167938,68.007637,36.793892
-0.118896,-1.512207,-1.831299,-84.000000,63.106869,42.206108
-0.101807,-1.601563,-1.950439,-92.312981,26.923664,43.709923
0.236816,-1.297119,-1.968506,-34.190838,-25.641222,23.969465
0.572510,-1.352051,-1.798828,-0.732824,-96.824425,27.717558
1.206299,-0.687500,-2.000000,-98.984734,-147.709930,88.282440
1.984314,-0.264648,-1.659912,-215.587784,-159.129776,232.183212
1.984314,-0.092041,-1.696045,-178.862595,-198.267181,211.519089
1.984314,-0.417480,-1.090576,-117.977097,-29.809160,70.053436
1.984314,-0.921143,-2.000000,-74.450378,154.137405,-27.580153
1.984314,-0.400635,-2.000000,-38.450382,72.000000,-32.778625
1.984314,-0.110596,-2.000000,-33.167938,-26.290077,-88.396950
1.984314,-0.229980,-2.000000,-9.099236,-12.824428,-109.526718
1.938965,-0.053955,-2.000000,26.946566,-35.305344,-103.877861
1.983643,0.335938,-2.000000,-0.007634,-0.007634,-0.007634
1.984314,0.744629,-2.000000,45.709923,-209.435120,-72.740456
1.999939,-0.000061,-0.000061,-0.007634,-0.007634,-0.007634
1.984314,0.576904,-2.000000,28.396946,-221.442749,-109.641220
1.984314,1.009033,-2.000000,36.854961,-207.977097,-165.549622
1.984314,1.022705,-2.000000,18.083969,-145.870224,-142.343506
1.984314,1.190918,-2.000000,0.229008,-69.694656,-82.816795
1.984314,1.220703,-2.000000,-7.129771,-26.900763,-52.809162
1.984314,1.240234,-2.000000,17.923664,4.694656,-30.374046
1.984314,1.281738,-2.000000,38.167938,36.870228,-15.702291
0.171143,1.141113,1.984314,50.755726,84.045799,-18.770992
-0.123779,1.202881,1.984314,39.206108,71.290077,-73.847328
-0.517090,1.002930,1.984314,19.503817,23.022902,-124.198471
-0.688477,0.545410,1.984314,26.137405,-9.389313,-59.572517
-0.423340,0.468506,1.984314,26.366413,-5.320611,40.580154
-0.110352,0.640625,1.984314,39.732826,31.312977,48.000000
-0.293945,0.396240,1.984314,61.206108,56.412212,-4.511450
-0.589600,0.303223,1.984314,89.053436,53.908398,-33.274811
-0.768555,0.427734,1.984314,76.938934,15.587787,-26.633587
-0.705078,0.890869,1.984314,34.679390,-34.908398,-11.618320
-0.568359,1.131104,1.984314,0.618321,-55.038166,-5.946565
-0.415283,1.054688,1.984314,-31.038168,-84.061066,-2.000000
-0.278809,0.794678,1.984314,-56.396946,-92.877861,11.038168
-0.173096,0.558105,1.984314,-36.832062,-84.679390,24.633587
-0.064209,0.601074,1.984314,17.709923,-68.465652,22.541985
0.000977,0.889160,1.984314,68.290077,-60.824429,3.572519
-0.014893,1.135742,1.984314,90.213737,-61.633587,-6.312977
-0.019287,1.299316,1.984314,98.351143,-73.801529,-3.984733
0.020508,1.230713,1.984314,87.190842,-91.717560,8.404580
0.119873,1.054443,1.984314,77.786263,-95.183205,22.175573
0.204834,0.958252,1.984314,85.977097,-66.679390,30.122137
0.283936,1.079590,1.969482,103.305344,-55.770992,32.419846
0.333008,1.330566,1.912354,126.755722,-65.786263,20.595419
0.321045,1.563721,1.871826,120.854965,-86.862595,14.190840
0.379639,1.679932,1.961914,114.007637,-114.259544,30.961832
0.605225,1.880859,1.915039,88.053436,-139.618317,42.450382
0.874756,1.964844,1.730713,52.083969,-152.442749,55.114502
1.224609,1.984314,1.563232,-38.488548,-136.786255,114.106873
1.635986,1.984314,1.634766,-71.580154,-129.190842,132.648849
1.984314,1.958008,1.454346,-141.603058,-140.824432,212.801529
1.984314,1.642822,1.741943,-104.106873,-165.213745,151.679382
1.984314,1.377197,1.683594,-61.038166,-197.259537,93.251907
1.984314,1.978271,1.941162,-13.381680,-32.045803,-38.793892
1.984314,1.722168,0.552002,-11.526717,26.412214,-50.282444
1.984314,1.509521,0.464844,27.274809,-10.419847,-92.748093
1.894775,1.773438,0.559570,55.137405,-53.297710,-94.709923
1.654297,1.969971,0.847900,65.145035,-90.603050,-85.580154
1.593750,1.984314,0.652588,67.465652,-133.198471,-59.068703
1.793213,1.984314,0.512695,57.450382,-188.786255,-41.526718
1.984314,1.571777,0.623291,52.000000,-194.160309,-54.885498
1.984314,1.342773,0.653076,70.519081,-171.183212,-83.083969
1.984314,1.624268,0.878418,91.923668,-142.106873,-104.893127
1.934082,1.914063,1.151123,94.358780,-90.183205,-111.076332
1.518311,1.758057,1.393311,70.160309,-47.763359,-69.053436
1.171631,1.517090,1.790283,34.167938,-14.648855,-25.190840
0.875732,1.293213,1.984314,31.984734,11.580153,4.114504
0.677246,1.273926,1.984314,27.183207,21.610687,8.641221
0.470215,1.266357,1.984314,15.000000,10.885496,-10.671756
0.273926,1.229980,1.984314,-0.946565,-15.435115,-34.030533
0.137939,1.079590,1.984314,-9.732824,-40.145039,-43.580154
0.099365,0.890625,1.984314,1.053435,-29.969465,-29.916031
0.176758,0.896973,1.984314,8.442748,-27.030535,-17.038168
0.243652,0.990234,1.984314,11.534351,-8.251908,-12.893129
0.240234,1.020264,1.984314,9.038168,7.877862,-12.679389
0.220215,0.980225,1.984314,1.290076,9.641221,-13.175572
0.205566,0.875244,1.984314,12.488549,7.564886,-2.343511
0.257568,0.818604,1.984314,55.190838,21.091602,20.557251
0.350830,1.030273,1.984314,81.595421,50.442749,30.114504
0.374023,1.253418,1.946777,95.427483,69.656487,26.244274
0.367188,1.421143,1.649170,79.786263,62.893131,19.870230
0.312256,1.498535,1.553223,45.862595,52.259541,-10.183207
0.171143,1.268799,1.519531,34.816795,21.519083,-16.740458
0.248779,1.186279,1.475342,56.877861,6.259542,9.297709
0.438721,1.246338,1.394531,68.007637,5.137404,15.488549
0.505859,1.275146,1.368652,79.427483,11.900764,12.564885
0.499756,1.315918,1.234619,72.480919,14.954199,17.740458
0.493896,1.326660,1.038330,50.206108,6.633588,31.603054
0.553955,1.285156,0.880127,29.992367,-7.694656,39.862595
0.668213,1.175049,0.727539,23.557251,-21.068703,35.839695
0.799805,1.097412,0.552246,27.770992,-36.229008,25.412214
0.881836,1.120117,0.403076,32.832062,-14.854961,15.694656
0.888672,1.312988,0.354980,32.358780,-16.732824,9.526717
0.900391,1.395264,0.142334,35.022900,-28.610687,17.519083
0.987305,1.303467,-0.109863,41.961834,-33.847328,13.351145
1.362305,1.815918,-0.321777,-32.641220,-46.206108,138.862595
1.984314,1.984314,-0.381592,-65.465652,-69.396950,166.870224
1.984314,1.606689,-0.238037,-84.152672,-73.503815,159.793900
1.984314,1.531738,-0.194336,-76.045799,-150.229004,95.847328
1.984314,1.927002,0.647949,-4.419847,-66.244278,-45.656490
1.984314,1.556885,0.443115,30.702290,140.916031,-64.770996
0.650635,0.953125,1.984314,38.580154,48.183205,-6.167939
0.304688,0.575439,1.984314,58.160305,-34.954197,-40.984734
0.236328,0.568115,1.984314,72.007637,-24.977098,-36.534351
0.075195,0.680664,1.984314,77.129768,-6.725191,-28.625954
0.085449,0.420898,1.984314,68.488548,-29.396946,-18.786259
0.267822,-0.150635,1.984314,34.320610,-56.061069,-23.671755
0.483398,-0.540039,1.984314,15.145039,-67.572517,-38.427483
0.581543,-0.553223,1.984314,21.801527,-67.847328,-75.870232
0.528076,-0.382813,1.984314,45.229008,-41.534351,-106.076332
0.293457,-0.304688,1.984314,76.687019,20.931297,-112.404579
-0.098389,-0.096436,1.984314,109.282440,84.801529,-78.496185
-0.420410,0.195557,1.984314,98.083969,108.145035,-39.229008
-0.673828,0.065674,1.984314,64.923668,152.435120,9.419847
-0.719482,-0.098877,1.984314,15.427481,126.946564,49.473282
-0.655029,-0.300049,1.984314,-11.427481,84.450378,39.603054
-0.564697,-0.541748,1.984314,-14.824428,53.053436,13.038168
-0.509766,-0.688721,1.984314,-11.954199,39.381680,-5.801527
-0.501221,-0.650879,1.984314,-1.977099,38.938931,-23.137405
-0.579102,-0.551758,1.984314,5.450382,53.702290,-25.221375
-0.704102,-0.507080,1.984314,10.312977,80.580154,-11.213740
-0.841309,-0.465332,1.984314,3.022901,103.732826,8.793893
-0.923828,-0.389893,1.984314,-15.748092,117.076332,15.977099
-1.009766,-0.383545,1.984314,-16.519083,97.648857,8.259542
-1.047119,-0.440918,1.984314,7.748092,83.832062,7.007634
-1.010742,-0.349854,1.984314,25.656488,71.435112,8.190840
-0.942871,-0.196777,1.984314,32.145039,61.122139,7.221374
-0.891113,-0.116455,1.984314,26.931297,60.580154,7.328244
-0.886230,-0.175293,1.984314,17.908398,57.458015,19.022902
-0.883301,-0.130615,1.984314,30.427481,69.709923,34.328243
-0.919922,0.102783,1.984314,47.786259,86.534348,37.832062
-0.945557,0.366211,1.984314,64.572517,76.618324,38.854961
-0.887207,0.540039,1.984314,64.893127,75.893127,46.045803
-0.748291,0.625000,1.984314,56.832062,66.160309,51.526718
-0.621826,0.716553,1.984314,42.419846,55.610687,50.175571
-0.524414,0.825684,1.984314,34.931297,40.732826,41.992367
-0.403076,0.897705,1.984314,33.641220,18.312977,27.022902
-0.252930,0.926514,1.984314,32.885498,-12.351145,12.458015
-0.054687,0.957275,1.984314,47.022900,-36.083969,11.740458
0.177734,0.993652,1.984314,25.404581,-42.106869,23.458015
0.443359,1.337158,1.984314,49.068703,-49.480915,19.832062
0.598633,1.318359,1.984314,12.213740,-52.763359,33.091602
0.694092,1.213135,1.984314,-31.618320,-28.450382,84.076332
1.031006,1.136963,1.984314,-52.908398,-48.786259,120.656487
1.840332,1.734863,1.984314,-27.022902,-95.893127,143.038162
1.984314,1.984314,1.984314,18.748091,-139.595413,41.961834
1.984314,1.743652,1.984314,6.732824,92.687019,-75.290077
1.966553,1.506104,1.984314,16.824427,110.633591,12.076336
1.427979,1.647705,1.984314,34.267174,-10.595420,-19.022902
1.348633,1.481689,1.984314,54.633587,-59.664124,-33.732826
1.067383,1.620361,1.984314,60.664124,-6.442748,-21.694656
0.821045,1.685547,1.984314,57.229008,9.801527,-16.709923
0.785156,1.377197,1.984314,28.977098,-8.572519,-5.603054
0.998779,1.112061,1.984314,12.778625,-52.541985,-24.625954
1.160400,0.813477,1.984314,17.015266,-73.557251,-48.511452
1.271973,0.686035,1.984314,34.175571,-57.664124,-55.160305
1.260498,0.813965,1.984314,71.091606,-12.404580,-64.519081
1.109863,0.998291,1.984314,93.748093,30.694656,-74.854965
0.810059,1.149414,1.984314,113.465652,62.648853,-78.984734
0.461670,1.229736,1.984314,114.396950,59.519085,-70.618324
0.222412,1.498535,1.984314,102.053436,39.603054,-36.343510
0.155273,1.555420,1.984314,59.061069,65.183205,-10.022901
0.066895,1.317139,1.984314,20.938931,76.358780,16.580153
0.073975,1.167969,1.984314,2.709924,67.244278,26.404581
0.096191,1.114990,1.984314,14.908397,63.274811,14.038168
0.081055,1.090576,1.984314,33.954197,56.465649,-0.183206
0.078613,1.035156,1.984314,44.763359,46.106869,0.862595
0.147705,1.005859,1.984314,46.320610,43.458015,6.343512
0.231201,1.029297,1.984314,43.030533,46.114502,6.312977
0.281250,1.049072,1.984314,36.847328,47.206108,10.038168
0.369141,1.080078,1.977783,28.541985,37.786259,7.030534
0.425781,1.118652,1.525635,20.709923,17.190840,-9.122137
0.452637,1.003418,1.274658,34.480915,19.419847,-13.076336
0.589844,1.039551,0.916016,46.251907,-0.068702,-10.900764
0.754639,1.100342,0.616455,63.175571,-12.229008,-9.549619
0.907959,1.161133,0.262939,66.351143,-9.595420,-1.358779
1.023438,1.236328,-0.192383,59.374046,0.664122,12.458015
1.099365,1.258301,-0.662109,51.870228,7.503817,25.320610
1.164551,1.204590,-1.101563,51.770992,3.351145,33.320610
1.238770,1.100098,-1.458252,55.877861,-5.885496,37.557251
1.324707,1.033936,-1.805908,61.251907,-18.213741,35.786259
1.413574,1.000488,-2.000000,60.396946,-35.763359,29.076336
-0.378662,0.802002,1.984314,59.114502,-39.190838,19.374046
-0.275635,0.927002,1.984314,44.396946,-55.335876,11.343512
-0.138428,1.033203,1.984314,36.900764,-78.885498,8.183207
0.017822,1.074219,1.984314,0.488550,-87.541985,17.465649
0.220459,1.148438,1.984314,18.137405,-87.793892,14.259542
0.291504,1.047363,1.984314,21.641222,-75.603050,11.778625
0.343750,1.442383,1.984314,22.160305,-92.473282,24.694656
0.640381,1.721436,1.690674,-26.801527,-114.351143,70.595421
1.113770,1.751709,1.536133,-54.862595,-152.488556,62.992367
1.954590,1.887695,1.610840,-70.946564,-183.290070,164.687027
1.984314,1.984314,1.984314,-50.106869,-192.580154,105.061066
1.984314,1.445801,1.984314,-53.106869,113.267174,-95.282440
1.984314,1.214355,1.510498,-15.984733,31.541985,22.259542
1.984314,1.703613,1.168945,1.770992,-125.175575,-70.099236
1.984314,1.665283,0.730957,34.740459,-139.679382,-76.526718
1.708496,1.853271,0.751221,50.007633,-80.335876,-74.946564
1.447021,1.984314,0.116455,56.229008,-96.007637,-32.824429
1.883301,1.984314,-0.186523,28.847328,-196.213745,-9.923664
1.984314,1.875732,-0.402588,-2.435115,-226.740463,-30.832062
1.984314,1.351318,-0.516846,-14.274809,-217.282440,-64.503815
1.984314,0.933105,-0.494141,-5.786260,-167.305344,-86.213737
1.984314,0.794189,-0.335938,32.022900,-111.045799,-96.015266
1.984314,1.095459,-0.304932,78.587784,-78.290077,-95.290077
1.984314,1.379150,-0.190186,109.679390,-58.366413,-83.564888
1.924805,1.764160,-0.201416,110.580154,-68.053436,-84.167938
1.685547,1.984314,-0.198242,100.137405,-107.847328,-77.992363
1.544678,1.984314,-0.277344,45.106869,-84.801529,-61.038166
1.401123,1.931152,-0.474121,-14.946565,-94.221375,-29.328245
1.420410,1.534912,-0.423340,-38.656490,-106.557251,-7.977099
1.492188,1.270020,-0.535156,-27.946566,-96.091606,-1.740458
1.524414,1.220947,-0.706787,13.206107,-72.129768,-17.480917
1.463623,1.214355,-0.962158,42.938931,-66.961830,-28.694656
1.413086,1.197266,-1.229004,45.015266,-64.625954,-26.267176
1.434326,1.160400,-1.510010,33.786259,-69.725189,-22.076336
1.465332,1.067871,-1.837891,15.190840,-76.641220,-21.229008
1.521484,1.005371,-2.000000,1.511450,-81.832062,-33.870228
1.491455,0.902344,-2.000000,-14.641221,-90.251907,-49.137405
1.510010,0.767822,-2.000000,-14.259542,-94.541985,-52.511452
1.537109,0.624756,-2.000000,-2.801527,-89.015266,-40.541985
1.570313,0.552246,-2.000000,4.427481,-73.877861,-26.946566
1.561523,0.522949,-2.000000,4.488550,-65.503815,-16.206106
1.521240,0.440186,-2.000000,-2.725191,-61.534351,-9.053435
1.486328,0.294678,-2.000000,-12.648855,-60.832062,1.190840
1.468994,0.106201,-2.000000,-13.007633,-55.435116,16.587786
1.488525,-0.015381,-2.000000,-2.282443,-43.496181,26.145039
1.463379,-0.082275,-2.000000,7.206107,-26.175573,28.015266
1.377441,-0.193359,-2.000000,11.419847,-12.213740,28.030535
1.245850,-0.306396,-2.000000,0.099237,-11.877863,29.603054
1.135498,-0.397217,-2.000000,-16.458015,-22.801527,31.633587
1.086914,-0.462891,-2.000000,-25.839695,-32.679390,23.175573
1.039307,-0.569336,-2.000000,-30.587786,-57.358780,5.916030
1.007324,-0.637451,-2.000000,-43.488548,-57.725189,5.740458
0.995605,-0.710937,-2.000000,-68.694656,-45.564884,16.893129
0.979492,-0.782227,-2.000000,-52.916031,-30.938931,16.061069
0.872314,-0.840820,-2.000000,-30.969465,-22.328245,18.221375
0.860107,-0.551270,-2.000000,-56.106869,-36.877861,68.122139
1.060059,-0.467773,-2.000000,-112.145035,-47.656490,105.656487
1.869629,-0.530762,-2.000000,-158.687027,-60.351147,226.038162
1.984314,-0.373047,-1.811523,-144.221375,-29.893129,103.213737
1.984314,-1.304443,-1.901123,-115.687019,218.206100,-99.580154
1.984314,-0.969238,-2.000000,-73.496185,64.167938,29.862595
1.984314,-1.002930,-2.000000,-66.664124,-20.442749,-46.564884
1.189697,-1.297363,-1.354492,-42.000000,-40.305344,-49.580154
0.273682,-1.083008,-0.830566,-14.824428,0.229008,-57.351147
0.096191,-0.483398,-0.027588,-11.732824,-0.007634,-0.007634
0.428711,-0.285645,0.273926,-4.114504,-52.114502,28.206106
0.929687,-0.489746,0.483887,-35.557251,-70.992363,8.129771
1.073486,-0.978027,0.434814,-61.458015,-83.312981,-29.083969
1.147217,-1.532471,0.391602,-65.015266,-57.702290,-49.152672
1.211914,-1.662598,0.302246,-34.328243,-11.908397,-76.946564
1.109863,-1.573730,0.172119,7.541985,35.549618,-83.526718
0.908203,-1.377930,-0.011475,39.442749,44.992367,-77.458015
0.644287,-0.952637,-0.289551,59.717556,41.870228,-64.992363
0.373047,-0.432617,-0.440430,53.717556,12.832061,-60.366413
0.177490,-0.268311,-0.766846,-5.488550,20.801527,-43.480915
0.110596,-0.463379,-1.087402,-73.748093,-11.816793,-8.404580
0.228516,-0.746582,-1.070068,-110.954201,-39.030533,11.641221
0.365723,-0.960693,-0.930176,-105.229004,-37.801525,12.770992
0.412109,-1.016357,-0.838623,-80.526718,-16.083969,-0.259542
0.331543,-1.042236,-0.689453,-47.770992,7.045802,-13.519084
0.155762,-1.089355,-0.538086,-40.977100,23.740458,-10.389313
1.749268,0.096680,-2.000000,-39.893131,14.221375,-1.587786
1.679199,-0.016602,-2.000000,-41.427483,25.038168,3.404580
1.616455,-0.083008,-2.000000,-34.870228,33.114502,1.969466
1.556152,-0.031494,-2.000000,-46.496181,30.709923,-12.793893
1.410156,-0.095459,-2.000000,-56.671757,22.381680,-24.763359
1.331543,-0.212646,-2.000000,-53.351147,20.526718,-18.381680
1.310547,-0.330811,-2.000000,-52.358780,29.519083,-6.908397
1.272461,-0.400635,-2.000000,-49.229008,46.343510,1.534351
1.203125,-0.489014,-2.000000,-43.702290,66.916031,10.541985
1.068848,-0.648193,-2.000000,-38.343510,88.557251,16.702290
0.850830,-0.836670,-2.000000,-33.282444,95.916031,18.763359
0.610352,-0.966309,-2.000000,-24.625954,111.190842,28.297710
0.416504,-1.020264,-1.977539,-17.595419,115.732826,37.702290
0.262451,-1.027100,-1.441895,-11.496183,121.770996,42.358780
0.111572,-1.011963,-0.937500,-7.687023,130.099243,41.236641
-0.062012,-1.004150,-0.440674,-7.351145,132.206100,37.717556
-0.241699,-1.022461,-0.012695,-14.488549,122.709923,32.274811
-0.366699,-1.073730,0.480957,-18.000000,106.229004,30.916031
-0.416260,-1.149902,0.957520,-14.320611,95.160309,27.343512
-0.440186,-1.171143,1.413574,16.595419,98.671753,26.137405
-0.524170,-1.156494,1.810303,12.908397,99.656487,41.404579
-0.534668,-0.984619,1.984314,63.916031,98.687019,26.793894
-0.571777,-0.632324,1.984314,53.480915,84.717560,49.007633
-0.512207,-0.331055,1.984314,5.961832,68.770996,84.381676
-0.295898,-0.268066,1.984314,-46.053436,63.183205,98.610687
0.243896,-0.143555,1.984314,-90.206108,67.290077,187.633591
1.984314,0.270996,1.984314,-94.099236,176.641220,65.419846
1.373047,-0.616943,1.984314,-79.442749,248.175568,-11.480916
1.446777,0.282471,1.984314,-56.541985,163.916031,10.488549
1.716797,0.001709,1.984314,-27.190840,114.114502,-17.465649
0.585693,0.208008,1.984314,13.152672,33.389313,-40.549618
-0.146240,0.593018,1.984314,73.366409,6.351145,-45.603054
-0.257568,1.326904,1.984314,74.908394,-8.572519,-20.435114
0.102295,1.681152,1.984314,80.656487,-47.022900,20.374046
0.759766,1.567871,1.984314,56.389313,-76.862595,38.534351
1.161865,1.649902,1.984314,35.381680,-84.229004,28.587786
1.135010,1.272949,1.984314,9.099236,-131.595413,-36.068703
1.245117,0.661621,1.984314,8.793893,-176.198471,-65.282440
1.504639,0.490967,1.984314,44.954197,-139.946564,-88.809158
1.357422,0.309814,1.984314,90.832062,-74.549622,-100.236641
1.242920,0.461670,1.984314,122.412216,39.458015,-86.129768
0.916504,0.877441,1.984314,154.770996,66.580154,-80.717560
0.520020,1.532471,1.984314,189.114502,40.000000,-75.877861
0.283203,1.984314,1.984314,146.610687,59.687023,-56.366413
0.045654,1.984314,1.984314,71.305344,43.396946,-26.106871
0.031250,1.894043,1.984314,-0.312977,4.847328,8.022901
0.155273,1.493408,1.984314,-49.427483,-16.938931,26.916031
0.306152,1.141113,1.984314,-54.061069,-27.473282,26.480917
0.469238,0.922363,1.984314,-19.633587,-29.816793,13.259542
0.609375,0.831543,1.984314,25.175573,-30.656488,-2.221374
0.757080,0.914307,1.518555,74.106873,-12.748092,-9.000000
0.883789,1.222168,1.065430,100.152672,-14.244275,-18.351145
0.944092,1.487793,0.701904,81.076332,-24.297710,-35.694656
0.957275,1.616211,0.253174,27.526718,-59.175571,-54.114502
0.978271,1.395264,-0.163330,3.656489,-90.068703,-49.755726
1.157471,1.098877,-0.598389,0.793893,-97.671753,-20.801527
1.397705,1.039551,-1.095703,-3.137405,-90.557251,-10.442748
1.532715,0.988037,-1.532715,19.526718,-69.641220,-9.885496
1.519043,0.962891,-1.994629,41.511452,-51.030533,-11.969465
1.467285,0.958008,-2.000000,50.145039,-49.312977,-9.595420
1.450684,0.963623,-2.000000,50.893131,-61.580154,-16.030535
1.441406,0.769531,-2.000000,29.954199,-80.076332,-10.114504
1.514648,0.505371,-2.000000,13.366412,-86.564888,6.389313
1.604492,0.296875,-2.000000,6.290076,-79.335876,20.160305
1.616943,0.128174,-2.000000,10.732824,-61.687023,23.877863
1.536133,-0.048340,-2.000000,16.175573,-42.000000,24.198473
1.396240,-0.221436,-2.000000,18.190840,-26.992367,26.251909
1.226563,-0.336426,-2.000000,14.885496,-23.664122,29.709923
1.064941,-0.382568,-2.000000,5.465649,-36.465649,27.374046
0.936035,-0.453857,-2.000000,-6.496183,-50.664124,21.580153
0.864746,-0.579590,-2.000000,-8.152672,-71.961830,7.282443
0.800049,-0.781250,-2.000000,-29.519083,-68.916031,2.732824
0.770752,-0.920654,-2.000000,-44.664124,-63.167938,5.801527
0.766602,-1.006104,-2.000000,-34.221375,-52.251907,9.396947
0.647949,-1.101807,-2.000000,-74.351143,-47.587788,30.007633
0.749023,-0.885254,-1.796143,-17.900763,-36.740459,13.580153
0.662354,-0.740723,-1.732178,-26.366413,-55.564884,38.969467
0.608398,-0.805664,-1.703613,-133.557251,-29.374046,116.656487
1.298340,-0.700684,-1.310547,-206.679382,8.824428,213.809158
1.984314,-0.615234,-0.684814,-165.061066,38.923664,61.358780
1.984314,-0.031982,-2.000000,-117.557251,202.076340,-117.038170
1.984314,0.565674,-2.000000,-77.114502,62.564884,13.633588
1.984314,0.032227,-2.000000,-76.656487,27.274809,-35.862595
1.984314,-0.529297,-2.000000,-29.343512,-2.694656,-63.152672
1.493652,-0.415771,-2.000000,-1.183206,30.610687,-57.099236
1.364014,-0.021240,-2.000000,3.923664,52.190838,-11.175572
1.293701,-0.031250,-2.000000,5.770992,2.824427,17.045801
1.486816,-0.407959,-1.815430,-23.335878,-25.160305,28.954199
1.605713,-0.812500,-1.544922,-49.297710,-37.946564,4.419847
1.653320,-1.156494,-1.254150,-58.244274,-42.083969,-21.007633
1.653564,-1.490479,-0.942627,-37.832062,-1.381679,-46.312977
1.558838,-1.560059,-0.828857,9.809160,64.419846,-80.778625
1.311523,-1.555664,-0.616211,61.717556,112.480919,-71.419846
1.016113,-1.406982,-0.398438,85.572517,139.954193,-55.946564
0.659668,-0.803711,-0.251953,101.862595,110.687019,-59.328243
0.369629,-0.364990,0.027832,99.068703,104.770996,-42.946564
0.088867,-0.194580,0.018555,30.541985,136.351151,-32.694656
-0.698730,-0.173828,1.984314,-43.916031,104.465652,-1.496183
0.968506,-0.617432,-2.000000,-87.450378,44.297710,0.061069
0.913086,-0.897705,-2.000000,-59.618320,47.015266,4.740458
0.860840,-0.994873,-2.000000,-25.091602,43.687023,-2.564885
0.739258,-0.965332,-2.000000,2.954198,64.931297,-9.221375
0.542969,-0.995117,-1.854004,16.572519,86.229004,-1.099237
0.342041,-1.021484,-1.516846,0.641221,105.969467,15.000000
0.146240,-1.085449,-1.099121,-19.099237,117.816795,22.106871
-0.050293,-1.131104,-0.592773,-34.671757,114.206108,20.083969
-0.234375,-1.055664,-0.066650,-43.015266,99.977097,5.106870
-0.384033,-1.031738,0.458984,-38.549618,81.480919,-2.213740
-0.467529,-1.000244,1.007568,-35.549618,69.679390,-4.832061
-0.521484,-0.990967,1.597168,-17.954199,73.946564,-6.488550
-0.625732,-0.957520,1.984314,-13.213740,93.106873,-1.160305
-0.769043,-0.861816,1.984314,-0.549618,109.549622,12.900764
-0.895264,-0.750732,1.984314,13.137404,121.908394,30.801527
-0.988525,-0.615234,1.984314,21.893129,126.541985,43.541985
-1.020752,-0.416016,1.984314,31.450382,123.198471,49.221375
-1.020996,-0.233643,1.984314,44.061069,116.969467,52.389313
-0.999023,-0.059082,1.984314,51.381680,115.030533,55.267174
-0.990479,0.103027,1.984314,59.671757,111.305344,58.557251
-0.973877,0.277588,1.984314,57.740459,94.465652,62.068703
-0.910156,0.471924,1.984314,52.114502,63.091602,60.641220
-0.757568,0.693604,1.984314,40.885498,47.885498,53.183205
-0.556885,0.913330,1.984314,37.870228,20.656488,34.725189
-0.346924,1.066895,1.984314,32.877861,-6.328244,17.770992
-0.091309,1.114014,1.984314,27.625954,-31.671755,13.755725
0.200439,1.252197,1.984314,-4.702290,-42.801525,25.679390
0.674805,1.598389,1.640625,30.969465,-58.366413,18.809160
1.000244,1.984314,0.864014,25.244274,-118.610687,52.328243
1.522705,1.984314,0.307373,-61.755726,-148.870224,150.030533
1.984314,1.984314,0.005615,-121.206108,-128.908401,224.893127
1.984314,1.722168,0.404053,-96.419846,168.961838,-35.679390
1.984314,0.787842,0.191162,-8.244275,98.725189,-10.854961
1.984314,1.662842,0.340332,27.450382,-28.396946,-62.770992
1.984314,0.956787,-0.311768,27.862595,-83.366409,-68.282440
1.984314,1.058838,-1.422119,34.923664,-103.122139,-88.305344
1.984314,1.076416,-2.000000,41.656490,-112.862595,-90.183205
1.984314,1.264160,-2.000000,28.923664,-122.923668,-46.122139
1.984314,1.105713,-2.000000,11.862596,-185.641220,-16.419847
1.984314,0.600342,-2.000000,-15.839695,-205.213745,-15.145039
1.984314,-0.078369,-2.000000,-42.458015,-209.351151,-32.854961
1.984314,-0.690186,-2.000000,-45.916031,-183.435120,-60.061069
1.984314,-0.913818,-2.000000,13.297709,-123.748093,-90.496185
1.984314,-0.803467,-2.000000,62.312977,-61.442749,-113.419846
1.984314,-0.687988,-2.000000,82.137405,-29.946566,-89.832062
1.928955,-0.427246,-2.000000,62.335876,-36.847328,-66.809158
1.634521,-0.136963,-2.000000,27.213741,-45.290077,-72.938934
1.336670,-0.225342,-2.000000,-16.267176,-34.068703,-52.259541
1.125244,-0.332764,-2.000000,-58.969467,-36.564884,-37.366413
0.946777,-0.568115,-2.000000,-65.251907,-33.809162,-32.694656
0.790283,-0.786865,-2.000000,-52.145039,-25.778625,-27.908398
0.617676,-0.891113,-2.000000,-37.511452,-8.770992,-26.114504
0.445312,-0.965576,-1.802734,-11.290076,-9.274809,-25.259542
0.267822,-1.018311,-1.414795,-8.152672,9.801527,-17.335878
0.073242,-1.048584,-0.963623,-8.847328,26.290077,-13.374045
-0.128662,-1.086914,-0.445557,-12.679389,38.839695,-5.229008
-0.286377,-1.072998,0.069092,-14.374045,50.480915,4.679389
-0.435303,-1.028809,0.654053,-23.419847,66.541985,11.595420
-0.580078,-0.973145,1.253662,-26.007633,81.458015,13.572519
-0.722168,-0.844971,1.769775,-36.106869,86.549622,5.274809
-0.900391,-0.734863,1.984314,-41.877861,81.358780,-6.282443
-1.011475,-0.673340,1.984314,-30.633587,77.419846,1.992366
0.611572,-0.915283,-2.000000,-26.419847,74.572517,14.526717
0.493652,-1.010742,-2.000000,-19.045801,92.587784,25.809160
0.327148,-1.088379,-1.781738,-9.694656,113.358780,34.885498
0.152588,-1.134521,-1.263184,0.770992,127.106873,44.152672
-0.010986,-1.114990,-0.713867,13.465649,130.702286,48.961834
-0.153809,-1.079590,-0.174316,25.450382,130.580154,48.877861
-0.312256,-1.039063,0.396484,29.450382,124.488548,46.946564
-0.436523,-0.968750,0.992920,30.091602,110.496185,42.305344
-0.518799,-0.881348,1.562744,23.122137,93.374046,33.236641
-0.567383,-0.840088,1.984314,11.633588,69.183205,24.015266
-0.558350,-0.810059,1.984314,-4.206107,58.259541,19.259542
-0.548828,-0.762207,1.984314,-1.259542,51.366413,21.061069
-0.616943,-0.527832,1.984314,-17.870230,52.931297,40.473282
-0.545898,-0.078369,1.984314,16.511450,62.786259,51.793892
-0.516846,0.424316,1.984314,8.190840,61.877861,79.519081
-0.429199,1.016846,1.984314,-33.725189,62.496181,113.519081
-0.058105,1.267090,1.984314,-77.854965,64.114502,160.206100
0.281494,1.158447,1.984314,-87.251907,15.221375,120.679390
0.882080,0.950684,1.984314,-94.320610,-80.297707,128.435120
1.984314,1.553711,1.984314,-53.358780,31.916031,35.022900
1.984314,1.059570,1.984314,-14.809160,193.114502,-22.564886
1.978760,1.081055,1.984314,11.603053,-49.145039,-13.312977
1.984314,0.915771,1.984314,25.748091,-91.595421,-59.580154
1.450684,1.284424,1.739746,39.358780,-97.488548,-97.068703
1.062256,1.919434,1.431641,51.465649,-99.427483,-79.862595
1.263428,1.984314,0.808594,61.580154,-144.496185,-49.114502
1.673584,1.984314,0.584961,66.068703,-210.511444,-21.320610
1.984314,1.984314,0.290283,49.549618,-232.923660,-41.312977
1.968689,-0.000061,-0.000061,-0.007634,-0.007634,-0.007634
1.984314,1.163574,-0.186768,37.740459,-209.847336,-90.763359
1.984314,0.951416,-0.338867,77.549622,-147.946564,-108.152672
1.984314,1.090576,-0.663086,113.091606,-109.801529,-115.198471
1.984314,1.374023,-0.937988,125.465652,-94.473282,-102.435112
1.984314,1.675293,-1.129883,97.312981,-103.190842,-91.419846
1.984314,1.766846,-1.171631,58.893131,-102.343513,-83.702293
1.903809,1.696777,-1.400146,5.824428,-92.374046,-68.755722
1.751221,1.527344,-1.562012,-13.900764,-90.435112,-42.465649
1.723877,1.380859,-1.930176,-14.755725,-89.122139,-24.656488
1.746826,1.235596,-2.000000,-18.717558,-91.213737,-26.381680
1.738525,1.011963,-2.000000,-7.587786,-98.045799,-32.832062
1.779297,0.805908,-2.000000,0.534351,-93.076332,-25.496183
1.813965,0.688477,-2.000000,6.381680,-88.236641,-25.740458
1.766113,0.475342,-2.000000,10.687023,-80.709923,-31.022902
1.709229,0.253174,-2.000000,8.190840,-65.480919,-17.526718
1.659180,0.047119,-2.000000,2.603053,-41.679390,0.809160
1.545166,-0.144531,-2.000000,-10.259542,-15.923664,9.366412
1.365234,-0.332520,-2.000000,-18.854961,2.206107,7.297710
1.136475,-0.439697,-2.000000,-40.183205,6.488550,-13.114504
0.803467,-0.655029,-2.000000,-59.160305,-4.541985,-33.839695
0.575195,-0.871338,-2.000000,-56.160305,-10.038168,-20.816793
0.458252,-0.991699,-2.000000,-51.175571,9.053435,-2.076336
0.322754,-0.983643,-1.344727,-46.206108,27.862595,1.381679
0.062744,-0.993408,-0.587158,-40.305344,70.809158,8.954199
-0.251953,-1.000000,0.162354,-36.335876,102.641220,21.458015
-0.517090,-0.981201,0.974365,-26.893129,120.312981,31.580153
-0.701904,-0.930176,1.765381,-16.129770,127.244278,37.977100
-0.827393,-0.806641,1.984314,-0.763359,130.106873,42.595421
-0.895752,-0.614746,1.984314,14.763359,133.809158,42.328243
-0.944824,-0.399414,1.984314,24.320610,136.267181,41.786259
-0.954834,-0.140137,1.984314,29.328245,126.351143,41.603054
-0.868896,0.145264,1.984314,24.564886,103.335876,41.114502
-0.706787,0.426270,1.984314,5.198473,87.709923,39.603054
-0.508057,0.705566,1.984314,-3.488550,65.053436,35.274811
-0.289795,0.981445,1.984314,-11.580153,45.274811,29.648855
-0.062012,1.217041,1.984314,-28.068703,27.412214,37.129772
0.382080,1.464111,1.984314,-46.969467,-18.755726,57.251907
0.855713,1.425537,1.187256,-30.809160,-59.839695,67.580154
1.600830,1.984314,0.337402,-21.816793,-100.419846,72.358780
1.984314,1.984314,-0.905029,-73.229004,-129.778625,202.503815
1.984314,1.920898,-1.521729,-105.015266,-162.916031,183.908401
1.984314,1.354248,-1.734863,-76.809158,134.664124,-35.396946
1.984314,0.852051,-2.000000,-6.687023,42.137405,-4.450382
1.984314,1.186279,-2.000000,8.244275,-72.312981,-27.068703
1.984314,0.702393,-2.000000,11.274809,-109.847328,-65.229004
1.984314,0.431885,-2.000000,19.167938,-79.603050,-92.816795
1.984314,0.634033,-2.000000,27.091602,-24.358778,-94.839691
1.785645,0.562988,-2.000000,36.221375,-93.244278,-56.839695
1.898682,0.477783,-2.000000,38.137405,-150.778625,-17.923664
1.984314,0.198486,-2.000000,14.312977,-209.786255,-24.000000
1.984314,-0.300781,-2.000000,-2.076336,-223.625961,-45.541985
1.984314,-0.619141,-2.000000,-1.557252,-185.328247,-67.503815
1.984314,0.992920,-0.343994,36.412212,-127.312981,-90.916031
1.984314,1.156006,-0.731445,66.022903,-87.358780,-101.129768
1.984314,1.360840,-1.154785,73.335876,-75.427483,-93.603050
1.984314,1.633301,-1.484375,56.099236,-86.190842,-84.541985
1.984314,1.807373,-1.659180,45.511452,-112.603050,-77.435112
1.984314,1.835205,-1.918457,1.389313,-108.458015,-59.374046
1.984314,1.586182,-2.000000,-42.335876,-83.862595,-44.297710
1.964355,1.260010,-2.000000,-53.832062,-71.557251,-22.847328
1.970215,1.009033,-2.000000,-58.564884,-61.427483,-10.389313
1.963867,0.810791,-2.000000,-49.320610,-52.320610,-17.030535
1.922607,0.616699,-2.000000,-25.900763,-64.809158,-29.916031
1.898682,0.465820,-2.000000,-10.916031,-60.511452,-32.580154
1.904541,0.359863,-2.000000,-8.900764,-48.870228,-28.595419
1.843994,0.199219,-2.000000,-17.816793,-27.412214,-25.099237
1.705078,-0.027344,-2.000000,-30.572519,-3.549618,-19.709923
1.527832,-0.230713,-2.000000,-35.442749,18.862595,-7.198473
1.326904,-0.423340,-2.000000,-42.389313,43.732826,8.404580
1.093506,-0.634033,-2.000000,-42.099236,66.732826,23.183207
0.845703,-0.802002,-2.000000,-39.068703,87.938934,29.473282
0.547119,-0.921143,-2.000000,-38.015266,105.038170,25.984734
0.220947,-1.012207,-1.334717,-32.625954,101.030533,19.374046
-0.095947,-1.028809,-0.498535,-31.297710,105.648857,16.137405
-0.382080,-1.030762,0.386719,-24.679390,103.381676,17.755726
-0.588379,-1.028809,1.359131,-8.435115,102.297707,29.404581
-0.702637,-0.900391,1.984314,6.503817,106.305344,41.038166
-0.790283,-0.651611,1.984314,20.541985,104.793892,41.152672
-0.848145,-0.365723,1.984314,38.801525,94.274811,33.007633
-0.867920,-0.072510,1.984314,50.206108,80.106873,23.908398
-0.816650,0.240234,1.984314,55.419846,58.496181,19.175573
-0.696045,0.565430,1.984314,49.603054,28.091602,17.427481
-0.491699,0.846436,1.984314,39.213741,14.603053,20.000000
-0.221436,1.013672,1.984314,35.679390,-9.007633,13.763359
0.009521,0.977783,1.984314,34.519085,-21.473282,14.641221
0.198730,0.926025,1.477295,-1.740458,-42.816795,36.603054
0.536621,1.094727,0.600830,27.671755,-67.099236,33.931297
0.899658,1.455322,-0.633301,31.190840,-96.129768,29.778625
1.306152,1.852051,-1.621826,8.404580,-138.061066,47.908398
1.984314,1.984314,-2.000000,-49.282444,-174.244278,98.206108
1.984314,1.515869,-2.000000,-153.519089,-146.473282,216.709930
1.984314,1.265137,-2.000000,-131.595413,-131.213745,146.000000
1.984314,0.343750,-2.000000,-82.603050,193.824432,-104.022903
1.984314,0.677979,-2.000000,-67.480919,22.160305,61.458015
1.984314,0.002930,-2.000000,-57.854961,-40.152672,-27.458015
1.984314,-0.484863,-2.000000,-59.687023,-47.167938,-65.366409
1.215820,-0.840576,-2.000000,-52.992367,-15.763359,-73.427483
1.018555,-0.454834,-1.804932,-27.213741,42.862595,-45.061069
0.679687,-0.503662,-1.359619,-17.190840,-36.427483,-5.297710
1.035156,-0.454346,-0.776367,-19.793894,-92.633591,11.236641
1.399902,-0.855469,-0.468018,-32.297710,-66.404579,-16.106871
1.336182,-1.267090,-0.279541,-39.725189,-44.946564,-36.801525
1.161865,-1.374756,0.049805,-16.580153,-18.862595,-53.419846
1.018555,-1.349365,0.297607,17.053434,41.183205,-68.832062
0.779541,-1.226563,0.515381,28.145039,81.748093,-70.503815
0.475342,-1.126221,0.810791,32.732826,95.687019,-63.534351
0.182617,-0.911133,1.107422,48.648853,87.786263,-39.503819
-0.013672,-0.478027,1.336182,24.992367,87.358780,-40.251907
-0.284668,-0.387207,1.533936,-2.183206,98.244278,-35.839695
-0.465088,-0.377930,1.822754,-23.488550,92.366409,-12.435115
-0.548340,-0.391846,1.984314,-26.496183,91.496185,-6.587786
-0.585205,-0.447998,1.984314,-18.198473,94.961830,-3.366412
-0.622803,-0.421631,1.984314,-14.526717,89.198471,-11.061069
-0.665771,-0.392822,1.984314,9.541985,93.183205,-12.916031
-0.643311,-0.250977,1.984314,23.984734,98.847328,-9.015267
-0.623047,-0.066406,1.984314,18.083969,99.290077,-3.358779
-0.630859,0.094971,1.984314,14.595420,97.603050,-0.534351
-0.598633,0.196777,1.984314,14.404580,99.908394,10.137404
-0.530518,0.292725,1.984314,11.519084,100.984734,20.488550
-0.432373,0.421387,1.984314,17.450382,97.106873,24.213741
-0.298828,0.624268,1.984314,31.152672,83.007637,19.656488
-0.112793,0.874268,1.984314,38.183205,60.564884,7.610687
0.095947,1.074219,1.984314,41.290077,33.450382,-2.328244
0.315430,1.238525,1.984314,34.763359,34.992367,-5.984733
0.487061,1.336670,1.984314,30.610687,28.396946,-8.198473
0.623779,1.346191,1.618652,30.259542,20.450382,-2.312977
0.791992,1.311279,1.009277,32.763359,10.083969,5.259542
0.980957,1.234131,0.272705,40.290077,0.870229,10.106871
1.145752,1.111084,-0.538574,48.274811,-5.580153,12.595420
1.274170,0.984131,-1.439209,51.740459,-11.381680,14.022901
1.355225,0.854736,-2.000000,52.908398,-21.412214,15.343512
1.409180,0.662842,-2.000000,50.687023,-33.587788,18.198473
1.407959,0.417725,-2.000000,40.854961,-39.083969,22.931297
0.279541,1.164551,1.315186,33.335876,-42.709923,27.801527
0.541016,1.229980,0.489502,12.053435,-57.969467,28.564886
0.809082,1.209473,-0.397461,-17.030535,-70.801529,22.450382
1.085449,1.137695,-1.330322,-50.198475,-85.053436,16.717558
1.311035,0.941895,-2.000000,-79.450378,-85.175575,10.839695
1.468750,0.733887,-2.000000,-89.106873,-71.595421,16.931297
1.563232,0.569580,-2.000000,-122.610687,-59.572517,39.351147
1.855225,0.542725,-2.000000,-83.229004,-60.687023,50.480915
1.984314,0.491455,-2.000000,-75.580154,-72.656487,47.580154
1.984314,0.501709,-2.000000,-158.282440,-41.916031,234.885498
1.984314,0.497803,-2.000000,-180.381683,14.068703,145.664124
1.984314,-0.998779,-2.000000,-142.328247,248.175568,-51.137405
1.984314,-0.687012,-2.000000,-81.687019,129.435120,52.045803
1.984314,-0.996582,-2.000000,-64.160309,91.526718,-9.038168
1.483398,-0.972656,-1.286865,-33.603054,70.091606,-47.282444
0.397705,-0.882812,0.394531,-3.022901,99.068703,-58.442749
-0.087158,-0.660645,1.826172,31.549618,144.015274,-49.000000
-0.483643,-0.410645,1.984314,59.908398,34.213741,3.366412
-0.196533,-0.141846,1.984314,56.465649,-41.274811,24.641222
0.283691,-0.184082,1.984314,30.648855,-92.977097,10.442748
0.695068,-0.343506,1.984314,8.503817,-82.656487,-20.458015
0.870605,-0.421875,1.984314,26.458015,-44.534351,-56.564884
0.855957,-0.248047,1.984314,74.732826,8.564885,-89.488548
0.666504,-0.006836,1.984314,117.587784,45.496181,-89.656487
0.465820,0.376465,1.984314,129.770996,49.931297,-68.076332
0.330078,0.988037,1.984314,110.389313,32.068703,-60.618320
0.124512,1.209717,1.984314,84.488548,30.748091,-64.885498
-0.003174,1.295410,1.984314,52.083969,21.396946,-39.305344
-0.017822,1.295898,1.984314,34.664124,2.198473,-23.068703
0.056152,1.249512,1.984314,33.938931,-17.251909,-19.312977
0.204834,1.289307,1.984314,47.427483,-16.274809,-21.198473
0.380859,1.296631,1.977051,67.809158,-30.969465,-22.450382
0.586426,1.368164,1.372070,68.916031,-42.251907,-26.221375
0.740723,1.425537,0.808838,64.412216,-54.206108,-27.870230
0.894043,1.421143,0.226562,56.671757,-65.984734,-18.206106
1.084717,1.350830,-0.375977,43.786259,-74.664124,-9.038168
1.278564,1.260742,-1.112061,28.549618,-80.045799,-5.488550
1.411621,1.099365,-1.818848,8.015267,-81.038170,-2.458015
1.496094,0.955566,-2.000000,-8.259542,-86.274811,-13.091603
1.491943,0.724121,-2.000000,-26.190840,-88.854965,-24.015266
1.469238,0.451172,-2.000000,-16.900763,-100.320610,-23.282442
1.467285,0.179199,-2.000000,-14.969465,-94.389313,-15.083969
1.442627,-0.037842,-2.000000,-17.229008,-72.847328,-7.557252
1.338135,-0.250488,-2.000000,-18.343512,-42.076336,4.183206
1.150879,-0.470703,-2.000000,-22.977098,-10.816793,16.137405
0.903564,-0.717041,-2.000000,-27.305344,17.549618,23.259542
0.622314,-0.969238,-2.000000,-26.412214,42.114502,25.961832
0.339111,-1.200195,-2.000000,-20.404581,58.022900,31.480917
0.076660,-1.274902,-1.617676,-19.274809,65.908394,35.183205
-0.166992,-1.238037,-0.914062,-23.618320,67.351143,34.442749
-0.367676,-1.169434,-0.199219,-29.358778,47.717556,26.763359
-0.560303,-1.142822,0.588867,-33.480915,58.061069,20.106871
-0.814209,-1.209229,1.268799,-48.862595,74.480919,22.106871
-1.016113,-1.129883,1.984131,-36.877861,82.801529,36.572517
-1.067139,-0.987061,1.984314,-44.167938,78.870232,70.664124
-0.914062,-0.548340,1.984314,2.053435,45.251907,66.908394
-0.507568,0.312744,1.984314,-27.061069,-13.465649,86.610687
0.514404,0.870850,1.984314,-145.267181,-25.786259,248.175568
1.984314,1.853271,1.984314,-117.061066,248.175568,68.709923
0.960205,-0.122314,1.666748,-112.175575,248.175568,-8.526717
1.984314,1.229004,1.984314,-32.152672,145.633591,18.625954
1.984314,0.728271,1.984314,-25.511450,88.618324,-50.183205
1.269287,1.546387,1.984314,24.786259,-16.435114,-76.244278
0.887207,1.839844,1.984314,56.923664,-6.412214,-71.954201
0.907227,1.984314,1.746826,95.801529,-23.412214,-63.274811
1.216553,1.968689,-0.000061,-0.007634,-0.007634,-0.007634
1.899414,1.984314,0.270752,96.343513,-201.648849,-1.732824
1.984314,1.619873,-0.346924,75.274811,-240.694656,-20.664122
1.984314,1.119629,-1.069092,59.374046,-212.893127,-58.358780
1.984314,0.923584,-1.454834,90.618324,-172.473282,-95.908394
1.984314,0.939697,-1.944336,148.580154,-84.015266,-111.534348
1.984314,1.191162,-2.000000,175.015274,-55.572517,-92.389313
1.984314,1.564209,-2.000000,147.755722,-33.328243,-76.122139
1.984314,1.541748,-2.000000,71.580154,-33.206108,-83.129768
1.975342,1.155029,-2.000000,21.114504,-58.557251,-57.641220
1.836182,0.916260,-2.000000,-16.610687,-79.832062,-30.167938
1.789795,0.673340,-2.000000,-9.801527,-91.641220,-26.587786
1.718506,0.443604,-2.000000,-6.908397,-98.847328,-35.068703
1.589355,0.147949,-2.000000,5.251908,-88.900764,-36.931297
1.446777,-0.132812,-2.000000,11.099236,-75.045799,-31.694656
1.121338,1.366455,-0.777100,18.480917,-73.152672,-27.748091
1.214355,1.218994,-1.289063,17.419847,-67.847328,-16.977098
1.358643,1.090820,-1.754883,7.290076,-61.366413,-6.175572
1.485596,0.982666,-2.000000,-7.564886,-49.511452,-1.374046
1.520508,0.870605,-2.000000,-35.877861,-39.099236,-16.595419
1.420898,0.647705,-2.000000,-55.549618,-42.068703,-31.671755
1.400635,0.371338,-2.000000,-55.068703,-47.038166,-23.541985
1.473633,0.160889,-2.000000,-55.832062,-35.587788,-9.916031
1.492188,-0.028320,-2.000000,-51.633587,-11.083969,-5.206107
1.399170,-0.220703,-2.000000,-50.458015,21.633587,4.740458
1.208252,-0.422119,-2.000000,-54.740459,35.832062,17.015266
0.964111,-0.648926,-2.000000,-59.496181,68.664124,35.496181
0.706543,-0.840088,-2.000000,-56.267174,93.381676,49.061069
0.431152,-1.004883,-1.968506,-43.908398,114.442749,55.030533
0.129395,-1.118652,-1.209229,-26.396946,130.480911,54.114502
-0.200684,-1.161133,-0.333008,-9.954199,138.335876,49.870228
-0.548340,-1.126953,0.659424,0.656489,132.343506,49.221375
-0.790771,-1.021973,1.625732,4.992366,109.251907,48.725189
-0.884521,-0.832764,1.984314,-0.793893,81.732826,45.946564
-0.875488,-0.605957,1.984314,-11.580153,61.893131,38.274811
-0.870117,-0.411621,1.984314,-9.656488,50.954197,27.282442
-0.915039,-0.177002,1.984314,-2.793893,56.496181,22.778625
-0.925537,0.236816,1.984314,-17.954199,54.366413,41.908398
-0.642334,1.127197,1.984314,21.824427,24.770992,46.473282
-0.255127,1.730225,1.984314,47.160305,-51.778625,34.290077
0.409668,1.984314,1.147949,3.038168,-133.839691,78.931297
1.984314,1.984314,0.063232,-137.618317,-212.854965,248.175568
1.984314,1.984314,0.956543,-111.526718,248.175568,-70.259544
1.984314,1.435059,-0.869385,-138.099243,26.251909,80.229004
1.984314,-0.056152,-0.246094,-38.335876,9.648855,-13.000000
1.984314,0.653076,-0.827393,-18.022902,-122.526718,-139.083969
1.984314,1.100830,-1.938232,0.366412,-140.374039,-131.297714
1.984314,1.766357,-2.000000,17.259542,-44.244274,-106.206108
1.808350,1.335449,-2.000000,11.847328,-99.580154,-53.534351
1.978271,1.048828,-2.000000,0.977099,-173.824432,-12.648855
1.984314,0.356445,-2.000000,-21.282442,-227.564880,4.839694
1.984314,-0.355957,-2.000000,-35.778625,-170.656494,-21.198473
1.984314,-0.890137,-2.000000,-61.236641,-160.946564,-61.809162
1.984314,-1.231689,-2.000000,-30.557251,-124.229004,-87.824425
1.984314,-1.167969,-2.000000,27.824427,-35.946564,-102.854965
1.984314,-1.107666,-2.000000,68.877861,28.358778,-86.580154
1.690186,-0.883057,-2.000000,78.290077,34.511452,-64.923668
1.170654,-0.507080,-2.000000,39.259541,60.175571,-67.664124
0.562500,-0.554687,-1.842285,-10.534351,111.160309,-38.824429
0.113525,-0.566895,-1.500488,-65.480919,107.091606,-3.816794
-0.193604,-0.644531,-0.815674,-89.511452,84.488548,8.038168
-0.367432,-0.747559,-0.139648,-95.511452,60.206108,12.816793
-0.485107,-0.849365,0.693604,-84.381676,60.206108,12.908397
-0.562256,-0.908691,1.570068,-52.847328,77.832062,15.740458
-0.677246,-0.797607,1.984314,-20.236641,98.641220,8.748092
-0.860107,-0.590332,1.984314,14.526717,106.152672,4.862596
-0.953125,-0.320068,1.984314,21.870230,107.656487,21.412214
-0.909424,0.018066,1.984314,19.641222,107.427483,35.503819
-0.778320,0.313477,1.984314,16.656488,96.557251,34.496181
-0.594727,0.507324,1.984314,20.038168,75.893127,28.099237
-0.318115,0.673096,1.984314,32.595421,54.816795,25.549618
0.004883,0.913330,1.984314,44.709923,30.083969,8.282443
0.268555,1.060547,1.980957,61.893131,-2.725191,-8.175572
0.558838,1.142822,1.093994,66.221375,-34.687023,-5.595420
0.905762,1.198242,0.077637,61.687023,-59.519085,3.091603
1.242188,1.176758,-0.966309,52.770992,-72.954201,9.038168
1.487061,1.068604,-2.000000,49.793892,-63.954197,16.465649
1.593262,0.877441,-2.000000,39.114502,-59.396946,19.847328
1.550049,0.557373,-2.000000,27.732824,-58.610687,18.236641
1.425781,0.153809,-2.000000,13.320611,-62.244274,17.496183
1.264404,-0.184326,-2.000000,-6.923664,-63.351147,18.770992
1.056885,-0.460449,-2.000000,-26.221375,-61.717556,16.167938
0.839111,-0.700684,-2.000000,-42.572517,-52.740459,8.175572
0.581055,-0.907715,-1.894531,-53.824429,-33.396946,1.824427
0.296143,-1.060303,-0.828613,-60.083969,-1.862595,13.381680
-0.078125,-1.063965,0.236328,-87.679390,40.702290,42.610687
-0.337646,-0.826660,1.316650,-52.656490,57.633587,36.961834
-0.663818,-0.630615,1.984314,-38.679390,86.687019,61.526718
-0.700684,-0.010986,1.984314,-67.465652,110.877861,119.274811
-0.378418,0.465332,1.984314,-119.618324,98.549622,168.709930
0.599609,0.983398,1.984314,-146.786255,80.854965,181.885498
1.984314,1.081543,1.984314,-110.465652,248.175568,-16.969465
1.984314,0.462646,1.984314,-50.519085,242.755722,31.465649
1.984314,1.315674,1.984314,-20.290077,116.503815,4.396946
1.984314,0.765381,1.984314,25.587786,3.503817,-51.480915
1.984314,1.292236,1.451660,78.259544,-40.366413,-97.267174
-0.312744,1.362061,1.984314,81.419846,-76.877861,-69.458015
0.048584,1.755859,1.984314,82.198471,-127.541985,-30.732824
0.982910,1.984314,1.984314,67.015266,-181.458008,-7.977099
1.754639,1.984314,1.756836,21.954199,-201.366409,-20.022902
1.984314,1.708740,0.674072,-18.091602,-238.274811,-34.351147
1.984314,1.061768,0.071533,-30.763359,-247.320618,-60.648853
1.984314,0.824707,-0.498291,23.435114,-210.938934,-101.931297
1.984314,0.732666,-1.118652,75.931297,-155.122131,-125.442749
1.984314,0.864746,-1.732422,94.503815,-87.793892,-106.610687
1.984314,1.288574,-2.000000,76.335876,-58.908398,-87.595421
1.984314,1.585938,-2.000000,53.541985,-38.206108,-84.564888
1.984314,1.567871,-2.000000,8.618320,-13.015267,-55.435116
1.876709,1.386719,-2.000000,-39.625954,-22.259542,-32.083969
1.751953,0.965576,-2.000000,-64.641220,-30.580153,-21.396946
1.655762,0.470215,-2.000000,-72.832062,-30.442749,-20.076336
1.582275,0.003174,-2.000000,-53.526718,-5.870229,-12.137404
1.450928,-0.325439,-2.000000,-34.412212,24.625954,-10.656488
1.227783,-0.549805,-2.000000,-12.366412,55.114502,-5.122138
0.952148,-0.698486,-2.000000,-3.725191,83.251907,8.145039
0.633789,-0.862061,-2.000000,-10.053435,105.541985,19.137405
0.303711,-0.947754,-2.000000,-29.129770,99.343513,9.816793
-0.079834,-1.016602,-1.198486,-53.488548,93.251907,-7.030534
-0.399902,-1.093811,-0.000061,-0.007634,-0.007634,-0.007634
-0.578369,-1.039551,0.848389,-41.114502,71.198471,7.381680
-0.693848,-0.894287,1.887695,-29.320610,78.564888,14.877863
-0.840088,-0.715576,1.984314,-5.847328,87.053436,12.977099
-0.974854,-0.545654,1.984314,21.480917,90.770996,15.419847
-1.013184,-0.272217,1.984314,42.679390,78.030533,23.877863
-0.886963,0.134521,1.984314,66.213737,52.916031,31.793894
-0.622070,0.573242,1.984314,78.503815,27.793894,36.175571
-0.276855,0.898926,1.984314,77.671753,23.984734,40.374046
0.095947,1.154053,1.984314,68.496185,-5.709924,39.625954
0.460449,1.322266,1.213379,46.351147,-35.977100,38.702290
0.809570,1.322998,-0.012451,18.427481,-64.595421,34.809162
1.146973,1.146484,-1.224609,1.595420,-86.312981,24.221375
1.393066,0.887207,-2.000000,-18.954199,-96.259544,11.748092
1.523682,0.611572,-2.000000,-35.419846,-97.419846,5.984733
1.575928,0.305664,-2.000000,-38.389313,-87.679390,-2.969466
1.479492,-0.092773,-2.000000,-41.450382,-57.648853,9.175572
1.135986,-0.432617,-2.000000,-94.442749,-14.847328,44.259541
0.894531,-0.744873,-2.000000,-68.229004,4.480916,27.198473
0.502930,-0.907715,-2.000000,-61.297710,-2.030534,40.412212
0.418213,-0.677979,-1.504883,-106.717560,-19.587786,115.870232
0.619629,-0.916992,-0.584717,-174.320618,-72.290077,179.778625
1.984314,-0.021973,1.913818,-181.687027,8.580153,117.442749
1.984314,-1.845215,0.258545,-125.664124,248.175568,-112.793892
0.978760,-0.038086,1.984314,-89.061066,78.198471,56.099236
1.551025,-0.438965,1.984314,16.251909,70.320610,-98.923668
0.649902,0.572998,1.984314,64.778625,10.274809,-73.694656
0.069092,1.411621,1.984314,119.969467,105.320610,-39.503819
-0.080811,1.984314,1.984314,99.916031,80.061066,-37.839695
0.035889,1.984314,1.984314,43.748093,16.572519,21.458015
0.579346,1.753418,1.984314,1.778626,-85.381676,35.366413
1.318115,1.280762,1.984314,-22.045801,-176.152664,8.251908
1.977539,0.729980,1.984314,10.847328,-180.099243,-31.992367
1.984314,0.669434,1.984314,95.419846,-96.404579,-71.687019
1.984314,0.913330,1.367188,190.343506,8.541985,-92.725189
1.984314,1.295166,0.776611,198.732819,47.091602,-73.221375
1.837891,1.593506,-0.058594,143.496185,47.106869,-57.389313
1.549561,1.694580,-0.768066,71.587784,-7.824428,-86.122139
1.389648,1.460938,-1.463379,46.175571,-66.549622,-43.465649
1.611816,1.483398,-2.000000,27.404581,-85.847328,-14.709924
1.799805,1.310791,-2.000000,27.351145,-100.160309,-27.015266
1.827637,0.976318,-2.000000,19.450382,-98.946564,-35.190838
1.732910,0.541016,-2.000000,12.786260,-83.832062,-26.274809
1.563477,0.178467,-2.000000,-4.305344,-74.122139,-22.053434
1.329834,-0.188477,-2.000000,-13.389313,-75.618324,-18.251909
1.117188,-0.499756,-2.000000,-26.916031,-74.938934,-6.396946
0.903564,-0.760498,-2.000000,-39.893131,-53.732826,-2.450382
0.592773,-0.995361,-2.000000,-47.709923,-17.106871,-4.305344
0.199951,-1.124268,-1.050537,-51.053436,19.755726,-4.068702
-0.194580,-1.130859,0.167725,-52.244274,35.290077,-3.839695
-0.585693,-0.978760,1.387207,-62.374046,57.236641,-5.641222
-0.860840,-0.848633,1.984314,-55.824429,71.038170,4.083970
-0.975830,-0.614014,1.984314,-41.587788,87.587784,16.748091
-0.931885,-0.239746,1.984314,-17.083969,99.358780,24.992367
-0.771729,0.204590,1.984314,9.320611,101.328247,30.114504
-0.502686,0.635498,1.984314,35.717556,97.870232,34.045803
-0.178223,0.979248,1.984314,51.022900,87.335876,36.251907
0.163818,1.188965,1.984314,57.885498,66.839691,37.595421
0.500732,1.309570,1.423340,54.908398,38.175571,38.473282
-0.932129,0.058350,1.984314,49.694656,25.473282,39.595421
-0.760742,0.441406,1.984314,45.053436,-12.007633,34.839695
-0.463867,0.832031,1.984314,39.122139,-47.625954,26.580153
-0.102539,1.131836,1.984314,26.656488,-78.366409,15.160305
0.292480,1.342773,1.984314,10.931297,-102.839691,4.160306
0.701416,1.429688,0.919922,-9.496183,-119.541985,-1.938931
1.147705,1.367920,-0.192139,-13.725191,-111.305344,4.694656
1.426514,1.162842,-1.502197,-54.152672,-89.557251,37.221375
1.722900,0.907227,-2.000000,-19.755726,-63.404579,20.175573
1.853027,0.986328,-2.000000,9.328244,-36.389313,34.969467
1.984314,1.346436,-2.000000,-52.900764,-49.725189,99.045799
1.984314,0.768799,-2.000000,-177.702286,-51.770992,135.076340
1.984314,0.161133,-2.000000,-234.824432,25.076336,185.946564
1.984314,-1.310303,-2.000000,-170.083969,248.175568,-21.595419
1.984314,-0.855225,-2.000000,-119.213737,134.549622,49.931297
1.984314,-0.838135,-2.000000,-40.946564,122.061066,-86.053436
1.893311,-1.065918,-1.097656,-21.381680,62.656490,-35.541985
0.392334,-1.277344,-0.836426,-4.595420,44.450382,-42.091602
-0.269531,-0.493652,0.813965,50.839695,39.435116,-44.358780
-0.334473,0.135254,1.984314,48.213741,22.946566,0.236641
0.007813,0.304199,1.984314,40.320610,2.267176,48.786259
0.354248,0.260742,1.984314,21.679390,-4.068702,40.419846
0.431885,-0.020020,1.984314,1.358779,-48.603054,-16.534351
0.592773,-0.291748,1.984314,16.625954,-119.297707,-51.961834
0.957520,-0.049561,1.984314,71.038170,-104.175575,-83.984734
0.980957,0.168701,1.984314,106.290077,-60.030533,-95.381676
0.887695,0.404785,1.984314,129.541992,9.251908,-81.007637
0.714844,1.134521,1.984314,144.106873,37.442749,-75.694656
0.477783,1.750000,1.984314,141.977097,21.335878,-69.610687
0.354980,1.984314,1.984314,102.778625,9.862596,-38.496181
0.484863,1.984314,1.728027,48.702290,-17.763359,-18.748091
0.729736,1.952148,1.091064,15.770992,-72.709923,-18.954199
1.080078,1.728027,0.401367,-2.854962,-106.297707,-21.183207
1.435547,1.554443,-0.385498,-7.702290,-126.450378,-36.763359
1.724121,1.339600,-1.202881,3.290076,-131.106873,-50.038166
1.909180,1.140625,-2.000000,1.358779,-109.633591,-52.595421
1.911865,0.922852,-2.000000,-15.816793,-86.977097,-51.145039
1.794678,0.666016,-2.000000,-46.259541,-72.061066,-31.122137
1.679932,0.229248,-2.000000,-68.580154,-58.015266,-2.068702
1.597900,-0.190186,-2.000000,-75.496185,-35.267174,18.519083
1.475342,-0.493896,-2.000000,-47.267174,-22.145039,19.534351
1.224854,-0.616211,-2.000000,-31.534351,8.320611,11.511451
0.864746,-0.713623,-2.000000,-16.748091,31.366413,-1.923664
0.431396,-0.782471,-2.000000,-36.274811,43.954197,-19.687023
-0.024902,-0.981445,-1.287598,-42.740459,47.977100,-19.526718
-0.270996,-1.135254,-0.287109,-29.992367,58.435116,-0.969466
-0.427002,-1.133789,0.754395,-27.916031,85.755722,15.839695
-0.638428,-1.034668,1.869141,-15.946565,118.343513,24.961832
-0.867432,-0.904785,1.984314,1.129771,148.236649,36.366413
-1.055908,-0.680908,1.984314,20.198473,160.694656,45.625954
-1.144531,-0.402588,1.984314,32.450382,162.694656,50.145039
-1.128174,-0.061279,1.984314,50.931297,145.053436,53.931297
-0.947998,0.381104,1.984314,65.595421,109.648857,48.580154
-0.633301,0.802490,1.984314,74.030533,67.519081,35.236641
-0.260986,1.116943,1.984314,69.908394,23.755726,22.916031
0.169922,1.364746,1.984314,56.671757,-18.541985,18.381680
0.613037,1.505127,1.098633,36.152672,-52.145039,15.229008
1.045410,1.506836,-0.094482,16.465649,-73.122139,17.015266
1.417236,1.473877,-1.400879,-24.984734,-91.648857,51.076336
1.802979,1.513428,-2.000000,-10.687023,-137.740463,49.503819
1.984314,1.542236,-2.000000,-23.389313,-137.412216,101.091606
1.984314,1.132324,-2.000000,-136.458008,-137.221375,228.893127
1.984314,0.949219,-2.000000,-158.816788,102.778625,46.259541
1.984314,-1.071533,-2.000000,-111.854965,154.702286,-4.343512
1.984314,-0.096436,-2.000000,-71.213737,26.000000,-14.832061
1.984314,-0.843750,-2.000000,-39.816795,-29.198473,-77.854965
1.895508,-1.005371,-2.000000,-46.152672,-30.916031,-74.366409
0.461670,-0.795166,-0.920410,-26.732824,-18.267176,-86.923668
-0.093750,-0.524658,0.977051,-8.038168,33.290077,-53.503819
-0.399658,-0.234619,1.984314,6.206107,29.671755,4.396946
-0.231445,-0.010254,1.984314,-16.938931,-43.419846,32.068703
0.185059,-0.233398,1.984314,-39.213741,-70.847328,26.450382
0.638184,-0.426025,1.984314,-33.274811,-75.664124,1.641221
0.910645,-0.319336,1.984314,13.618320,-34.015266,-45.381680
0.864502,-0.127930,1.984314,71.511452,12.419847,-76.045799
0.854004,0.231689,1.984314,123.213737,65.427483,-67.412216
0.840576,0.770752,1.984314,120.068703,97.351143,-52.122139
0.756592,1.476074,1.984314,94.374046,114.923668,-67.732826
0.498779,1.592041,1.984314,47.381680,130.648849,-51.267174
0.385986,1.617188,1.984314,6.435114,99.396950,-18.015266
-0.879883,-0.221191,1.984314,7.465649,74.297707,-3.183206
-0.881348,-0.023437,1.984314,31.404581,27.603054,-2.328244
-0.737061,0.293945,1.984314,57.221375,-12.282443,-13.931297
-0.514404,0.621338,1.984314,76.068703,-33.938931,-20.679390
-0.283936,0.870361,1.984314,70.068703,-46.328243,-30.099237
-0.071777,1.006592,1.984314,61.610687,-64.282440,-34.625954
0.203613,1.109131,1.984314,53.564884,-81.977097,-26.427481
0.557861,1.253662,1.608887,37.931297,-96.305344,-17.832062
0.934570,1.261475,0.690918,23.725191,-98.969467,-8.809160
1.279053,1.208984,-0.352783,-1.297710,-85.816795,-4.954198
1.490479,1.063721,-1.443848,-18.129770,-67.938934,-9.923664
1.589844,0.844971,-2.000000,-25.709923,-58.877861,-10.511451
1.580811,0.560059,-2.000000,-40.450382,-42.977100,-15.938931
1.489502,0.135010,-2.000000,-40.763359,-23.396946,-14.076336
1.347900,-0.281982,-2.000000,-43.938931,8.152672,-2.580153
1.115479,-0.589111,-2.000000,-43.442749,44.885498,11.656488
0.784180,-0.856934,-2.000000,-32.480915,80.938934,24.862595
0.375000,-1.053467,-1.779297,-21.809160,113.412216,36.152672
-0.051758,-1.090576,-0.646484,-8.099236,131.770996,42.396946
-0.439941,-1.022461,0.607422,9.824428,133.458008,44.221375
-0.753662,-0.898437,1.791260,24.931297,123.763359,43.442749
-0.967773,-0.689209,1.984314,19.885496,112.091606,42.244274
-1.022705,-0.359375,1.984314,18.038168,81.557251,36.236641
-0.895264,0.014648,1.984314,12.633588,44.290077,27.076336
-0.654053,0.381836,1.984314,13.954199,3.480916,17.603054
-0.229004,0.755371,1.984314,26.458015,-36.938931,18.160305
0.214600,1.080078,1.984314,-10.007633,-65.396950,42.938931
0.804932,1.468262,1.768066,14.282443,-81.412216,22.717558
1.199463,1.745361,0.329102,35.465649,-112.984734,30.015266
1.781250,1.984314,-1.126465,-41.244274,-106.671753,95.610687
1.984314,1.979980,-2.000000,-131.885498,-92.687019,111.404579
1.984314,1.122803,-2.000000,-168.328247,-107.709923,126.343513
1.984314,0.452637,-2.000000,-165.167938,-78.900764,110.877861
1.984314,-0.177734,-2.000000,-83.458015,184.091599,-63.083969
1.984314,0.087402,-2.000000,-66.526718,56.801525,-17.717558
1.984314,-0.447998,-2.000000,-68.190842,16.198473,-44.206108
1.964600,-1.210938,-2.000000,-62.229008,-0.335878,-59.496181
0.455078,-0.973389,-1.163818,-20.458015,22.458015,-68.175575
0.116943,-0.538330,0.841309,13.763359,70.473282,-32.198475
-0.204834,-0.117920,1.984314,36.442749,42.137405,-2.549618
-0.068604,0.145752,1.984314,44.435116,7.061069,27.923664
0.239014,0.316162,1.984314,19.709923,-1.732824,21.000000
0.441406,0.344482,1.984314,6.748092,-35.221375,-6.183206
0.730957,0.397949,1.984314,19.709923,-93.870232,-30.091602
1.071045,0.412109,1.984314,78.007637,-95.618324,-65.076332
1.309326,0.609619,1.984314,131.877869,-65.297707,-88.931297
1.421631,0.948730,1.984314,157.236649,-26.763359,-83.450378
1.458984,1.482910,1.984314,135.396942,6.938931,-68.389313
1.301758,1.781738,1.783936,74.511452,31.022902,-64.022903
1.086914,1.671875,1.044922,43.183205,23.190840,-23.351145
1.160889,1.660645,0.142578,23.442749,-20.236641,-7.251908
1.325439,1.550293,-0.795898,28.145039,-61.473282,-24.694656
1.553955,1.362549,-1.803467,45.068703,-102.244278,-30.198473
1.825195,1.198242,-2.000000,50.160305,-109.977097,-31.297710
1.946045,0.964355,-2.000000,50.809162,-88.351143,-41.748093
1.839844,0.616455,-2.000000,40.312977,-70.839691,-52.549618
1.621582,0.241943,-2.000000,29.603054,-58.625954,-40.770992
1.447998,-0.063232,-2.000000,19.236641,-48.297710,-21.351145
1.249512,-0.346436,-2.000000,1.229008,-31.938931,-9.267176
0.975098,-0.613770,-2.000000,-20.129770,-5.664122,0.480916
0.632812,-0.830566,-2.000000,-40.496181,19.290077,-0.702290
0.229004,-1.004639,-1.719238,-52.022900,14.419847,-14.007633
-0.144775,-1.144531,-0.703613,-55.351147,23.389313,-10.709924
-0.423828,-1.173584,0.422852,-46.114502,41.190838,1.137405
-0.619629,-1.055176,1.507813,-32.412212,66.190842,13.801527
-0.785889,-0.849365,1.984314,-22.381680,93.396950,23.496183
-0.919922,-0.625244,1.984314,-16.587786,112.435112,33.145039
-0.951660,-0.332764,1.984314,-3.106870,123.946564,43.503819
-0.872803,0.030273,1.984314,16.969465,125.870232,49.755726
-0.674805,0.410645,1.984314,35.503819,115.267174,52.190838
-0.373779,0.729736,1.984314,47.190838,85.603050,51.389313
0.013672,1.002686,1.984314,48.480915,61.564884,47.740459
0.429932,1.215332,1.378662,43.229008,19.099237,42.190838
0.874512,1.315674,0.134521,34.755726,-25.603054,28.854961
1.249023,1.269775,-1.134766,22.328245,-63.549618,14.801527
1.513428,1.123047,-2.000000,13.839695,-95.900764,0.137405
1.627686,0.760742,-2.000000,-1.312977,-115.648857,4.564886
1.577637,0.290283,-2.000000,-68.687019,-122.305344,35.618320
1.597656,-0.143799,-2.000000,-54.534351,-103.648857,30.908398
1.315918,-0.417725,-2.000000,-40.366413,-107.152672,34.458015
1.100342,-0.214844,-2.000000,-81.664124,-103.396950,113.541985
1.984314,1.850098,-2.000000,-161.847336,-94.396950,147.343506
1.984314,1.033936,-2.000000,-211.465652,-91.320610,175.992371
1.984314,-0.141846,-2.000000,-165.511444,247.358780,-8.015267
1.984314,-0.870117,-2.000000,-108.633591,161.709930,44.732826
1.984314,-0.501953,-2.000000,-63.603054,113.450378,-63.328243
1.984314,-1.416992,-2.000000,-4.129771,49.251907,-94.916031
1.050293,-0.643799,-1.399902,-17.702290,97.839691,-61.435116
0.013916,-0.593262,0.437256,28.389313,126.954201,-54.763359
-0.367676,-0.004395,1.582031,55.954197,112.091606,6.473282
-0.493164,0.142578,1.984314,46.389313,-14.671756,38.824429
0.055908,-0.074707,1.984314,13.572519,-64.076332,45.343510
0.660400,-0.132568,1.984314,10.229008,-89.183205,26.862595
0.829346,-0.037598,1.984314,28.671755,-114.320610,-13.778625
0.913086,0.233398,1.984314,87.587784,-129.458008,-58.442749
0.922852,0.448242,1.984314,136.015274,-109.167938,-78.984734
1.058350,0.766602,1.984314,148.961838,-60.496181,-62.435116
1.127930,1.234375,1.984314,129.290070,-34.015266,-59.145039
1.056641,1.530762,1.984314,89.267174,-26.312977,-71.282440
0.970703,1.541748,1.571289,57.045803,-35.969467,-50.549618
1.105713,1.646240,0.768311,37.167938,-58.702290,-35.511452
1.314941,1.682617,-0.213867,35.381680,-82.244278,-47.160305
1.549805,1.570068,-1.229248,27.603054,-104.977097,-55.877861
1.770020,1.349609,-2.000000,5.725191,-110.610687,-56.992367
1.890625,0.978027,-2.000000,-10.114504,-103.114502,-52.969467
1.912842,0.562500,-2.000000,-19.503817,-81.572517,-42.412212
1.836914,0.166504,-2.000000,-22.251909,-46.335876,-26.725191
1.651123,-0.206543,-2.000000,-24.557251,-7.519084,-16.519083
1.331543,-0.568604,-2.000000,-31.206106,24.198473,-5.290076
0.959717,-0.874756,-2.000000,-32.190838,50.908398,10.503817
0.606934,-1.094727,-2.000000,-33.862595,73.885498,27.503817
0.278564,-1.110840,-0.990479,-30.175573,91.603050,34.969467
-0.075684,-1.063721,0.276123,-24.175573,99.809158,28.694656
-0.428955,-0.933594,1.596191,-14.022901,111.435112,24.801527
-0.694092,-0.720703,1.984314,2.702290,105.900764,16.587786
-0.831299,-0.401855,1.984314,10.702291,89.221375,12.488549
-0.804932,-0.014648,1.984314,19.061069,60.740459,9.366412
-0.619141,0.372070,1.984314,36.076336,28.885496,15.503817
-0.236084,0.776367,1.984314,56.198475,3.916031,17.526718
0.166748,1.102539,1.984314,63.954197,-11.572519,11.748092
0.499512,1.303711,1.453857,62.106869,-25.587786,7.809160
0.791504,1.250244,0.153809,49.496181,-37.519085,12.015267
1.038574,1.080566,-1.194336,35.175571,-42.793892,22.595419
1.241943,0.884033,-2.000000,13.458015,-61.328243,28.572519
1.355957,0.612549,-2.000000,-6.916030,-70.519081,23.580153
1.367188,0.266357,-2.000000,-25.045801,-76.259544,10.419847
1.265625,-0.173096,-2.000000,-38.480915,-72.221375,-5.030534
1.026123,-0.636230,-2.000000,-53.305344,-48.694656,-7.954198
0.647949,-0.979980,-2.000000,-61.274811,-11.160305,2.374046
0.181641,-1.207764,-1.544434,-94.725189,39.022900,54.221375
-0.217529,-1.107910,-0.374023,-40.603054,64.961830,36.916031
-0.576660,-0.858398,0.665527,-10.900764,74.473282,76.816795
-0.428467,0.107178,1.674072,-50.305344,43.977100,113.015266
0.136475,0.570312,1.984314,-120.099236,12.068703,122.870232
1.984314,0.390381,1.984314,-178.335876,91.068703,79.320610
1.984314,-0.458252,1.984314,-110.885498,248.175568,3.679389
1.763672,0.730713,1.984314,-42.267174,128.816788,13.068703
1.984314,0.372803,1.984314,28.030535,35.648853,-122.770996
1.984314,1.527344,1.984314,68.221375,-23.847328,-88.412216
1.485840,1.984314,1.561279,85.740456,-30.022902,-95.702293
1.337891,1.984314,-0.287598,95.183205,-18.625954,-44.793892
1.634521,1.984314,-1.764893,60.000000,-128.679382,-19.969465
1.984314,1.892822,-2.000000,14.664123,-206.206100,11.412213
1.984314,0.987061,-2.000000,-26.167938,-250.137405,0.702290
1.984314,0.133789,-2.000000,-42.770992,-235.793900,-21.809160
1.984314,-0.507324,-2.000000,-15.236641,-194.259537,-61.893131
1.984314,-0.878906,-2.000000,46.007633,-154.473282,-75.946564
1.984314,-0.899170,-2.000000,86.862595,-80.129768,-66.221375
1.949463,-0.765137,-2.000000,87.190842,-25.229008,-55.030533
1.419189,-0.595703,-2.000000,59.099236,3.832061,-40.778625
0.855713,-0.571777,-1.501709,8.847328,58.977100,-34.167938
0.180176,-0.776611,-0.755127,-48.824429,78.511452,-32.587788
-0.262207,-0.970215,0.260010,-60.022900,60.251907,7.549618
-0.414062,-0.802246,1.323730,-62.656490,68.038170,5.656488
-0.589844,-0.616699,1.984314,-32.503819,72.664124,-13.992367
-0.624268,-0.324707,1.984314,5.389313,95.396950,1.580153
-0.525391,0.117676,1.984314,24.938931,115.877861,5.908397
-0.393066,0.528809,1.984314,42.893131,122.908394,-4.152672
-0.226318,0.845459,1.984314,53.366413,107.045799,-13.343512
0.043213,1.037598,1.984314,58.992367,75.335876,-5.488550
0.455811,1.210449,1.676025,65.068703,38.297710,0.900763
0.906982,1.303711,0.502930,64.480919,2.862595,-4.450382
-0.587646,0.314209,1.984314,59.312977,-4.007634,-7.381680
-0.321289,0.678955,1.984314,55.740459,-31.389313,-11.190840
0.024902,0.934570,1.984314,48.167938,-54.870228,-14.984733
0.385986,1.079834,1.715576,40.618320,-72.343513,-20.534351
0.738037,1.124268,0.504150,-0.007634,-0.007634,-0.007634
1.083496,1.066162,-0.716553,21.679390,-68.488548,-13.114504
1.368164,0.940186,-1.957031,10.839695,-46.580154,-2.374046
1.510254,0.698975,-2.000000,-1.847328,-12.374045,8.045801
1.480957,0.311035,-2.000000,-10.977099,25.702290,15.793893
1.298828,-0.100586,-2.000000,-18.541985,56.954197,20.190840
0.991211,-0.469971,-2.000000,-28.748091,57.496181,18.183207
0.612305,-0.788086,-2.000000,-33.381680,72.152672,16.557251
0.229004,-1.054199,-2.000000,-39.824429,77.213737,16.251909
-0.110840,-1.190918,-1.013672,-38.786259,79.320610,17.183207
-0.468750,-1.166016,0.121094,-35.900764,83.091606,24.648855
-0.781738,-1.067871,1.143311,-52.328243,74.473282,47.511452
-0.878418,-0.637451,1.984314,-36.099236,39.916031,81.916031
-0.724121,-0.283691,1.984314,-45.030533,-0.954198,109.335876
-0.404297,-0.144043,1.984314,-76.015266,-20.480917,178.106873
0.783691,0.763184,1.984314,-78.404579,-56.664124,226.145035
1.984314,1.176758,1.984314,-70.190842,241.931305,-14.557252
1.984314,0.983643,1.984314,-79.305344,144.656494,47.442749
1.984314,1.598389,1.984314,-57.152672,80.564888,-20.946566
1.984314,0.899170,1.039063,-34.366413,-36.824429,-87.198471
1.984314,1.431152,0.684082,32.290077,-110.030533,-124.526718
1.984314,1.984314,-0.764160,22.839695,-90.648857,-92.954201
1.791260,1.807617,-2.000000,14.419847,-47.083969,-52.366413
1.718506,1.178467,-2.000000,6.564886,-103.007637,10.099236
1.984314,0.727295,-2.000000,-16.114504,-120.206108,23.007633
1.984314,-0.282227,-2.000000,-27.809160,-97.503815,9.824428
1.984314,-0.904053,-2.000000,-37.374046,-83.656487,-14.229008
1.929932,-1.287109,-2.000000,-40.923664,-91.832062,-39.954197
1.584229,-1.609375,-1.229492,-12.755725,-93.442749,-60.213741
1.349121,-1.422607,-0.365723,41.473282,-54.068703,-69.595421
1.059082,-0.956055,0.328613,58.381680,-6.213740,-70.534348
0.648437,-0.491211,1.143555,61.885498,36.412212,-41.694656
0.276123,-0.237305,1.857666,11.687023,127.076332,-34.687023
-0.292480,-0.422852,1.984314,-6.160306,167.595413,-12.030535
-0.614258,-0.416992,1.984314,10.893129,157.625961,23.305344
-0.719971,-0.112549,1.984314,30.351145,122.969467,-1.305344
-0.763428,0.169922,1.984314,56.694656,86.572517,-15.595420
-0.547363,0.567139,1.984314,79.282440,43.305344,-9.412213
-0.187500,0.960693,1.984314,81.404579,21.664122,-8.091603
0.132568,1.204834,1.984314,74.595421,8.908397,-22.267176
0.359131,1.307373,1.984314,67.557251,-6.229008,-34.618320
0.589600,1.286377,1.229248,65.435112,-28.824427,-28.053434
0.864014,1.224609,0.396729,57.992367,-47.931297,-20.175573
1.151367,1.143555,-0.524658,52.259541,-63.030533,-16.282442
1.409668,1.047119,-1.554443,45.847328,-75.152672,-12.290076
1.594971,0.871338,-2.000000,32.221375,-78.206108,-13.511451
1.633789,0.625488,-2.000000,7.778626,-75.312981,-23.541985
1.504639,0.211914,-2.000000,-4.496183,-80.679390,-30.236641
0.523193,-0.994873,-2.000000,-35.076336,-13.374045,-4.122138
1.612305,0.430420,-2.000000,1.312977,-73.946564,-9.396947
1.468750,-0.040771,-2.000000,-17.473282,-50.557251,-2.473282
1.183105,-0.475830,-2.000000,-35.679390,-21.351145,12.183207
0.781738,-0.835449,-2.000000,-46.343510,12.786260,22.801527
0.324219,-1.054688,-1.761963,-48.992367,47.465649,28.862595
-0.123047,-1.134033,-0.565186,-48.648853,74.526718,33.122139
-0.523926,-1.089355,0.740723,-48.000000,92.251907,39.511452
-0.802490,-0.935547,1.984314,-53.549618,89.694656,39.083969
-0.786133,0.253174,1.984314,-19.068703,92.549622,31.839695
-0.510986,-1.110596,1.251953,-63.175571,50.748093,22.396946
-0.665527,-0.812744,1.984314,-36.702290,73.580154,30.709923
-0.841553,-0.447021,1.984314,-62.664124,92.625954,59.969467
-0.739746,0.102783,1.984314,-21.007633,90.694656,44.236641
-0.379883,0.781494,1.984314,4.152672,47.328243,76.793892
0.456543,1.591553,1.984314,-9.694656,15.526717,125.343513
1.468018,1.984314,1.636719,-85.022903,-20.702290,193.740463
1.984314,1.984314,1.300049,-103.541985,229.000000,13.183207
1.984314,0.969971,-0.072510,-96.160309,216.534348,34.465649
1.984314,1.465332,-0.768555,-42.358780,93.450378,13.977099
1.984314,0.963135,-1.302490,4.022901,24.580153,-86.679390
1.984314,0.708984,-1.667969,34.183205,-69.213737,-87.045799
1.984314,0.925537,-2.000000,33.916031,-106.435112,-92.984734
1.807129,0.542480,-2.000000,12.396947,-94.534348,-63.854961
1.455566,0.096191,-2.000000,18.358778,-101.572517,-12.458015
1.541260,-0.364502,-1.771973,8.572519,-99.022903,-2.854962
1.379395,-0.851074,-1.049316,-1.488550,-99.801529,2.503817
1.984314,0.240234,-2.000000,-4.053435,-111.511452,-22.793894
1.984314,-0.487549,-2.000000,-4.740458,-120.167938,-51.885498
1.984314,-0.736084,-2.000000,18.442749,-101.893127,-82.045799
1.984314,-0.829590,-2.000000,45.381680,-70.916031,-98.343513
1.984314,-0.765381,-2.000000,61.114502,-18.297710,-85.160309
1.651367,-0.589844,-2.000000,60.030533,37.106869,-64.954201
1.223145,-0.483398,-2.000000,52.167938,92.748093,-41.610687
0.719971,-0.629883,-1.761963,7.244275,146.984726,-9.923664
0.200195,-0.853027,-1.061279,-17.923664,149.687027,-1.725191
-0.205566,-0.958740,-0.113037,-0.320611,115.290077,-9.900764
-0.420166,-0.921387,0.910645,20.679390,87.129768,-17.603054
-0.501953,-0.734863,1.857910,40.137405,64.366409,-29.549618
-0.564209,-0.541016,1.984314,55.503819,47.671757,-44.404579
-0.646240,-0.361816,1.984314,56.832062,48.847328,-40.732826
-0.717285,-0.164307,1.984314,46.473282,51.511452,-24.648855
-0.724121,0.079346,1.984314,43.450382,39.908398,-4.809160
-0.650391,0.329834,1.984314,42.274811,21.259542,5.198473
-0.487305,0.591064,1.984314,41.335876,0.129771,6.595420
-0.270752,0.818115,1.984314,44.183205,-21.541985,7.129771
-0.010498,1.022705,1.984314,40.068703,-35.641220,4.450382
0.237793,1.177246,1.984314,32.038166,-47.305344,-4.152672
0.461426,1.266113,1.348389,27.351145,-49.641220,-3.061069
0.717041,1.236084,0.502197,20.229008,-66.557251,-4.442748
0.987061,1.143311,-0.444336,9.877863,-76.709923,-5.076336
1.226074,0.991211,-1.402100,9.267176,-74.824425,-2.145038
1.427002,0.852539,-2.000000,7.908397,-60.526718,2.061069
1.512207,0.606445,-2.000000,-1.809160,-34.038166,9.061069
1.430908,0.251953,-2.000000,-17.496183,0.511450,18.778625
1.220215,-0.119873,-2.000000,-30.610687,30.152672,27.603054
0.909912,-0.465820,-2.000000,-44.984734,45.458015,34.717556
0.566162,-0.723877,-2.000000,-53.206108,55.404579,33.076336
0.258545,-0.913330,-1.823486,-56.473282,44.206108,21.755726
-0.031494,-1.026367,-0.736572,-49.801525,51.030533,12.648855
-0.299561,-1.052979,0.557129,-28.503817,64.549622,18.549618
-0.568604,-0.849365,1.567871,-65.786263,81.916031,55.839695
-0.602539,-0.429199,1.984314,7.969466,75.931297,37.946564
-0.668457,0.039307,1.984314,-18.458015,63.580154,111.290077
-0.239990,0.927734,1.984314,-68.847328,54.541985,148.763351
0.341553,1.224609,1.984314,-83.068703,12.358779,130.717560
1.644531,1.702393,1.984314,-97.984734,-0.160305,125.709923
1.984314,1.545410,1.978271,-97.633591,213.648849,20.770992
1.984314,1.938965,0.986572,-118.374046,147.633591,65.564888
1.984314,1.129395,0.846191,-61.251907,51.641220,-16.030535
1.984314,0.548096,-0.008545,-28.877863,-14.748092,-85.809158
1.984314,0.726318,-1.303467,0.679389,-90.328247,-111.312981
1.984314,0.694336,-2.000000,-4.175572,-44.717556,-60.656490
1.515625,0.608398,-2.000000,-7.870229,-24.900763,-41.000000
1.259033,0.130371,-2.000000,-4.244275,-65.442749,15.450381
1.506592,-0.295410,-1.577148,-14.236641,-84.954201,32.908398
1.738770,-0.727051,-0.577148,-10.557252,-48.992367,0.488550
1.230957,-0.825439,0.192871,-3.862595,-41.259541,-40.549618
0.778809,-1.042725,0.924805,-21.694656,-75.259544,-49.305344
0.758545,-1.006104,1.885498,-13.618320,-77.488548,-46.312977
0.659668,-0.762695,1.984314,25.015266,-47.442749,-63.183205
0.473145,-0.448730,1.984314,60.877861,-2.961832,-78.114502
0.259277,-0.009521,1.984314,87.511452,51.557251,-63.458015
0.107178,0.432129,1.984314,101.984734,105.267174,-31.213741
-0.053223,0.943604,1.984314,81.511452,111.908394,-8.045801
-0.298340,0.949219,1.984314,55.427483,126.717560,0.961832
-0.207275,1.040283,1.984314,41.381680,100.343513,35.236641
0.072754,1.278320,1.984314,30.992367,48.984734,3.946565
0.336182,1.296875,1.984314,54.816795,20.870230,-19.183207
0.721680,1.397461,1.229248,75.938934,-16.625954,-25.748091
1.099121,1.512695,0.282959,81.114502,-29.809160,-25.473282
1.362549,1.536133,-0.704346,65.099236,-42.786259,-34.496181
1.468750,1.345459,-1.614014,50.549618,-57.679390,-34.992367
1.555664,1.014893,-2.000000,37.954197,-71.488548,-19.351145
1.627197,0.716553,-2.000000,30.122137,-82.022903,-8.961832
1.651611,0.437744,-2.000000,29.763359,-79.496185,-3.450382
1.575928,0.155518,-2.000000,21.610687,-67.954201,-3.152672
1.368164,-0.171875,-2.000000,5.694656,-55.000000,-9.160305
1.059570,-0.457031,-2.000000,-4.328244,-54.572517,-14.190840
0.679687,-0.723877,-2.000000,-28.610687,-45.152672,-17.183207
0.314209,-1.013916,-1.965332,-38.458015,-27.671755,-4.282443
0.022949,-1.136230,-0.885010,-44.366413,4.702290,10.328244
-0.277344,-1.109863,0.323975,-42.122139,45.641220,14.893129
-0.608398,-1.029785,1.554688,-34.366413,84.824425,20.114504
-0.882812,-0.867920,1.984314,-24.740458,117.641220,28.458015
-1.054199,-0.622559,1.984314,-13.854961,135.358780,39.007633
-1.056641,-0.265869,1.984314,-0.641221,139.969467,46.931297
-0.896240,0.171143,1.984314,18.091602,131.511444,46.381680
-0.718018,-1.118652,1.476318,17.267176,121.709923,41.412212
-0.953857,-0.842529,1.984314,19.908398,91.832062,32.114502
-1.027344,-0.468262,1.984314,22.595419,48.221375,20.816793
-0.910400,-0.062744,1.984314,14.198473,-1.083969,14.709924
-0.650146,0.330566,1.984314,0.297710,-40.549618,15.450381
-0.307373,0.710205,1.984314,-26.725191,-60.671757,38.709923
0.285156,1.447754,1.984314,-44.938931,-82.748093,90.488548
0.889648,1.663574,1.093994,-58.396946,-102.938934,86.374046
1.548096,1.753662,-0.841553,-141.259537,-117.832062,190.763351
1.984314,1.984314,-2.000000,-184.076340,-162.603058,185.618317
1.984314,1.733398,-2.000000,-165.030533,248.175568,-59.442749
1.984314,1.075439,-2.000000,-193.961838,112.770996,74.198471
1.984314,-0.005859,-2.000000,-99.167938,90.106873,-24.931297
1.984314,-0.659424,-2.000000,-78.206108,-25.236641,-105.946564
1.739258,-0.061768,-2.000000,-15.213740,-42.160305,-117.786263
1.108398,0.426514,-2.000000,4.954198,92.267174,-54.992367
0.626953,0.369873,-1.639404,-5.290076,68.549622,-19.503817
0.631592,-0.141602,-0.833252,1.725191,-24.977098,46.000000
1.160889,-0.689453,0.091553,7.328244,-38.160305,40.908398
1.439453,-1.123291,0.767822,25.717558,16.183207,14.793893
0.985352,-0.895264,1.121826,2.320611,-21.030535,-25.511450
0.680420,-1.098877,1.861572,-2.251908,-84.961830,-57.664124
0.681885,-0.997314,1.984314,42.732826,-74.152672,-67.534348
0.660156,-0.629395,1.984314,90.213737,-28.045801,-81.000000
0.504150,-0.202148,1.984314,128.854965,44.740459,-76.488548
0.119629,0.297852,1.984314,131.938934,93.419846,-48.801525
-0.250488,0.731934,1.984314,79.305344,103.160309,-34.755726
-0.589111,0.672852,1.984314,46.030533,97.557251,-6.045802
-0.459473,0.842773,1.984314,36.022900,39.778625,36.206108
-0.115723,1.194092,1.984314,33.244274,-28.366413,-11.511451
0.211670,1.262939,1.984314,65.717560,-61.045803,-39.106869
0.647217,1.332031,1.707764,78.053436,-82.992363,-33.625954
1.068604,1.430420,0.799805,76.320610,-77.519081,-39.045803
1.307373,1.439453,-0.272461,63.778625,-77.740456,-54.366413
1.397461,1.269775,-1.321533,46.931297,-86.641220,-55.320610
1.516846,0.998779,-2.000000,29.854961,-91.488548,-32.526718
1.690674,0.762695,-2.000000,11.145039,-84.465652,-12.259542
1.763428,0.446045,-2.000000,-10.282443,-66.740456,-6.274809
1.679199,0.018555,-2.000000,-31.900763,-44.030533,-4.320611
1.469238,-0.345947,-2.000000,-38.763359,-18.984734,-4.251908
1.145996,-0.653809,-2.000000,-39.862595,8.458015,-4.274809
0.760498,-0.884766,-2.000000,-36.748093,14.106871,-7.015267
0.361084,-1.027100,-1.585938,-38.656490,38.160305,-6.572519
-0.033203,-1.130615,-0.419922,-35.755726,62.969467,1.496183
-0.356689,-1.100830,0.854248,-29.916031,88.717560,17.435114
-0.610840,-0.934326,1.984314,-20.534351,113.045799,28.129770
-0.807373,-0.719238,1.984314,-2.671756,127.000000,35.564884
-0.874023,-0.344727,1.984314,13.931297,125.923668,41.709923
-0.800049,0.085937,1.984314,32.290077,110.740456,41.000000
-0.610596,0.515625,1.984314,47.160305,85.755722,35.931297
-0.318359,0.845947,1.984314,51.145039,47.511452,29.343512
0.035889,1.081543,1.984314,40.435116,21.152672,27.587786
0.456543,1.269287,1.109375,24.015266,-27.908398,19.343512
0.881104,1.305908,-0.203613,6.335878,-74.549622,9.854961
1.263184,1.237305,-1.538330,-9.000000,-114.106873,0.534351
1.514404,1.003418,-2.000000,-29.793894,-131.511444,-3.671756
1.535400,0.514160,-2.000000,-65.786263,-122.122139,19.412214
1.577393,0.086426,-2.000000,-85.732826,-95.030533,53.954197
1.350586,-0.470947,-2.000000,-46.061069,-88.541985,45.824429
1.175049,-0.478516,-2.000000,-98.015266,-37.870228,127.557251
1.279785,-0.300293,-2.000000,-132.641220,-39.633587,138.190842
1.984314,-0.256104,-0.388916,-170.793900,28.946566,139.763351
1.984314,-1.027832,-0.290527,-155.702286,248.175568,-57.763359
1.407959,-0.306152,-0.054443,-144.580154,141.213745,69.374046
1.980713,-0.846191,1.219727,-62.030533,123.106873,-59.603054
0.556885,-0.387695,1.984314,8.374045,46.427483,-61.099236
-0.273682,0.806152,1.984314,65.549622,75.190842,-78.839691
-0.252930,1.904785,1.984314,84.488548,94.320610,-12.000000
0.212891,1.984314,1.984314,72.763359,-49.412212,10.229008
1.271729,1.984314,1.812500,36.213741,-163.114502,30.671755
1.984314,1.798828,0.697021,25.916031,-164.656494,13.251908
1.984314,1.401367,-0.636230,20.236641,-156.129776,-32.893131
1.984314,0.820068,-1.583008,48.328243,-213.541992,-85.557251
1.984314,0.341797,-2.000000,101.793892,-182.419846,-95.862595
1.984314,0.351807,-2.000000,140.496185,-117.251907,-103.671753
1.984314,0.490479,-2.000000,146.480911,-71.030533,-102.557251
1.984314,0.713623,-2.000000,118.251907,-53.389313,-81.374046
1.984314,0.676025,-2.000000,61.564884,-16.732824,-65.496185
1.455078,0.256592,-2.000000,0.480916,-23.587786,-64.290077
1.048584,-0.281494,-2.000000,-21.809160,-47.900764,-10.603053
0.875488,-0.551270,-2.000000,-36.198475,-60.786259,-12.122137
1.679199,0.987793,-2.000000,-6.183206,-70.862595,-25.923664
1.804443,0.707275,-2.000000,5.625954,-48.625954,-26.603054
1.806885,0.464600,-2.000000,6.549618,-10.625955,-24.145039
1.628418,0.148682,-2.000000,-4.694656,21.221375,-30.351145
1.330078,-0.280762,-2.000000,-13.450381,44.160305,-25.488550
1.004883,-0.648682,-2.000000,-24.297710,67.244278,-4.015267
0.684570,-0.883545,-2.000000,-25.572519,90.007637,11.083969
0.325684,-0.983887,-1.646729,-19.007633,112.480919,17.786259
-0.072510,-0.997070,-0.448975,-2.603053,126.213737,19.465649
-0.456543,-0.901611,0.844238,7.122138,126.053436,18.603054
-0.781494,-0.789307,1.984314,9.366412,117.038170,17.488550
-0.986328,-0.604980,1.984314,15.351145,92.541985,19.755726
-0.998047,-0.287354,1.984314,25.916031,59.198475,26.236641
-0.789307,0.174805,1.984314,36.854961,21.496183,26.038168
-0.414062,0.637939,1.984314,43.839695,-12.839695,18.473282
0.058594,1.001953,1.984314,45.526718,-42.183205,9.335877
0.532471,1.260986,1.750732,38.137405,-64.274811,2.236641
0.964111,1.317627,0.354248,18.083969,-74.473282,-1.022901
1.293457,1.201904,-1.136475,-11.473283,-72.404579,-1.351145
1.497070,0.952881,-2.000000,-46.564884,-60.442749,-1.541985
1.544434,0.460205,-2.000000,-63.129772,-59.473282,1.404580
1.470703,-0.101807,-2.000000,-76.946564,-35.320610,6.435114
1.233643,-0.584229,-2.000000,-69.580154,0.618321,17.687023
0.785645,-0.892578,-2.000000,-96.015266,37.213741,41.465649
0.376953,-0.960937,-1.707275,-68.755722,67.259544,51.893131
-0.089600,-0.978760,-0.386719,-61.229008,71.786263,77.343513
-0.302979,-0.580322,1.067871,-75.503815,96.618324,121.564888
-0.202637,-0.034912,1.984314,-100.389313,75.389313,122.038170
0.315918,0.311279,1.984314,-119.160309,36.038166,157.122131
1.984314,0.588623,1.984314,-102.717560,102.366409,68.671753
1.984314,0.101563,1.984314,-49.656490,248.175568,-13.015267
1.975342,1.321289,1.984314,-34.618320,97.030533,31.160305
1.984314,0.980713,1.984314,20.755726,4.923664,-60.091602
1.969482,1.173584,1.984314,65.694656,-76.412216,-94.236641
1.473145,1.934814,0.478760,64.809158,-103.442749,-91.236641
1.617676,1.984314,-0.968506,61.862595,-99.358780,-46.358780
1.984314,1.984314,-2.000000,33.648853,-180.290070,-19.366413
1.984314,1.458496,-2.000000,-5.038168,-219.175568,-4.129771
1.984314,0.430176,-2.000000,-44.114502,-201.496185,4.358778
1.984314,-0.354980,-2.000000,-61.274811,-175.748093,-24.610687
1.984314,-1.077393,-2.000000,-18.000000,-169.427475,-68.618324
1.984314,-1.279053,-2.000000,50.786259,-107.931297,-94.946564
1.984314,-1.235596,-2.000000,66.923668,-29.038168,-99.030533
1.734619,-1.061523,-2.000000,63.603054,47.770992,-73.442749
1.142578,-0.671631,-1.360352,41.694656,83.473282,-55.610687
0.412842,-0.499756,-0.500000,-3.954198,126.816795,-63.328243
-0.258301,-0.675537,0.233398,-22.145039,148.129776,-4.603054
-0.541260,-0.514404,1.081299,-35.198475,133.732819,20.145039
-0.779785,-0.408691,1.984314,-26.236641,95.610687,-8.351145
-0.833252,-0.390869,1.984314,5.786260,57.358780,-7.083970
-0.698242,-0.116699,1.984314,25.488550,48.709923,-1.862595
-0.502930,0.223633,1.984314,45.641220,54.877861,-7.374046
-0.320801,0.615479,1.984314,57.412212,53.000000,-19.381680
-0.153320,0.915771,1.984314,60.732826,42.145039,-23.946566
0.081543,1.059326,1.984314,62.297710,17.396946,-9.106871
0.436768,1.169678,1.984314,60.870228,-8.099236,4.832061
0.847900,1.256836,1.087158,59.603054,-25.251909,7.900764
1.189453,1.211670,-0.031250,55.022900,-43.030533,3.648855
1.445557,1.059082,-1.305908,50.022900,-61.923664,-0.595420
1.616211,0.857422,-2.000000,38.473282,-73.511452,-5.748092
1.638184,0.504883,-2.000000,18.396946,-78.709923,-12.687023
1.494873,0.104492,-2.000000,-2.816794,-88.526718,-24.755726
1.209229,-0.312500,-2.000000,-30.839695,-87.435112,-26.152672
0.879883,-0.681641,-2.000000,-41.190838,-70.152672,-12.236641
0.523682,-0.960205,-1.913574,-45.748093,-26.809160,2.595420
0.106934,-1.056885,-0.589844,-45.435116,34.351147,15.381680
-0.353760,-0.995361,0.902588,-39.946564,89.786263,26.412214
-0.750488,-0.795898,1.984314,-27.992367,123.053436,37.793892
-0.956787,-0.487305,1.984314,-8.305344,133.877869,45.198475
-0.952637,-0.065918,1.984314,11.763359,130.740463,49.587788
-0.740234,0.439209,1.984314,30.732824,114.549622,50.358780
-0.345215,0.941162,1.984314,34.778625,101.320610,43.801525
0.106934,1.268799,1.984314,41.236641,66.511452,31.381680
0.558838,1.435059,0.950684,39.251907,17.717558,19.931297
1.000977,1.351563,-0.519043,28.465649,-37.374046,9.389313
1.390625,1.112793,-1.969238,10.709924,-86.480919,0.534351
1.666992,0.680420,-2.000000,3.091603,-112.190842,2.167939
1.649902,0.115723,-2.000000,-47.343510,-111.778625,25.885496
1.645264,-0.291260,-2.000000,-24.549618,-97.335876,10.595420
1.193848,-0.581055,-2.000000,-12.435115,-87.541985,36.465649
0.961182,-0.241943,-2.000000,-102.267174,-33.442749,115.870232
1.984314,1.253662,-2.000000,-183.595413,-22.053434,112.106873
1.984314,0.366943,-2.000000,-243.580154,9.824428,145.595413
1.984314,-0.666992,-2.000000,-184.335876,248.175568,-2.633588
1.984314,-0.977539,-2.000000,-159.687027,248.175568,81.206108
1.984314,-0.974609,-1.913818,-88.030533,174.045807,-0.221374
1.984314,-1.551514,-0.276611,-24.503817,112.740456,-59.839695
0.248779,-0.614502,0.895752,8.770992,70.366409,-76.946564
-0.361572,-0.150635,1.984314,45.839695,76.709923,-56.618320
-0.571777,0.632080,1.984314,75.335876,9.381680,-28.931297
-0.254639,1.130859,1.984314,91.442749,-93.755722,10.374045
0.557129,1.466797,1.984314,75.480919,-138.129776,-0.564885
1.207520,1.264404,1.984314,60.145039,-187.847336,-41.030533
1.769287,1.047119,1.984314,44.877861,-228.969467,-58.633587
1.984314,0.846436,1.427979,49.297710,-250.137405,-83.824425
1.984314,0.919189,0.534668,95.213737,-235.213745,-115.641220
1.984314,1.178467,-0.469238,130.167938,-183.404587,-139.603058
1.984314,1.412598,-1.330566,123.541985,-102.435112,-128.312973
1.984314,1.597168,-2.000000,95.328247,-34.053436,-91.473282
1.984314,1.497314,-2.000000,26.343512,19.671755,-74.251907
1.680664,0.912354,-2.000000,-19.801527,41.374046,-35.083969
1.500000,0.453125,-2.000000,-34.755726,11.175572,5.709924
1.342285,0.159668,-2.000000,-60.816795,-4.732824,-34.083969
0.985352,-0.311279,-2.000000,-42.213741,-20.763359,-63.625954
0.738525,-0.713135,-2.000000,-23.412214,-11.885496,-41.297710
0.547852,-0.902100,-1.836426,-19.969465,28.351145,-25.061069
0.206543,-0.964844,-0.707275,-12.099236,74.122139,-27.885496
-0.224609,-0.970947,0.515625,3.419847,95.633591,-15.541985
-0.533691,-0.825439,1.631836,17.412214,99.358780,6.007634
-0.696289,-0.612061,1.984314,18.229008,90.305344,19.625954
-0.747070,-0.362305,1.984314,17.022902,71.022903,20.137405
-0.691895,-0.097168,1.984314,17.893129,66.473282,20.145039
-0.543457,0.236328,1.984314,34.740459,48.664124,19.007633
-0.274902,0.611816,1.984314,47.687023,28.297710,15.038168
0.054687,0.911377,1.984314,47.992367,2.534351,10.351145
0.420410,1.053467,1.752197,50.198475,-24.763359,10.282443
0.820557,1.142822,0.371094,31.778625,-45.687023,9.656488
1.120361,1.021240,-1.131836,14.916031,-58.450382,5.809160
1.306885,0.826416,-2.000000,-12.328244,-62.160305,5.312977
1.318115,0.365234,-2.000000,-25.618320,-52.885498,17.671755
1.204590,-0.110352,-2.000000,-40.206108,-23.969465,35.183205
0.881836,-0.520264,-2.000000,-45.358780,-2.282443,44.160305
0.380859,-0.835937,-2.000000,-55.404579,33.312977,46.267174
-0.151123,-1.044434,-1.218750,-60.549618,62.137405,48.152672
-0.640625,-1.099609,0.354492,-59.916031,82.519081,45.503819
-1.041260,-0.971680,1.984131,-43.633587,100.748093,42.068703
-1.327393,-0.700195,1.984314,-14.290076,114.641220,33.259541
-1.464111,-0.348633,1.984314,13.816793,106.770996,44.213741
-1.222168,0.130127,1.984314,-36.801525,79.145035,78.763359
-0.478516,0.635742,1.984314,55.480915,25.442749,42.916031
0.304688,1.163574,1.984314,103.053436,-63.877861,71.725189
1.627197,1.984314,0.786621,44.893131,-152.824432,118.206108
1.984314,1.984314,-1.099609,-55.259541,-250.137405,107.664124
1.984314,1.984314,-1.986572,-126.847328,248.175568,-121.587784
1.984314,1.984314,-2.000000,-180.000000,48.145039,83.839691
1.984314,0.098633,-2.000000,-53.931297,-107.549622,-31.083969
1.984314,0.107910,-2.000000,-5.893130,-71.519081,-90.854965
1.984314,0.227051,-2.000000,25.381680,-37.435116,-85.793892
1.563965,0.446289,-2.000000,22.854961,12.190840,-47.587788
1.015137,-0.072998,-2.000000,10.801527,-78.038170,-1.877863
1.027588,-0.317871,-1.250488,-18.740458,-128.427475,5.847328
1.260010,-0.826904,-0.151367,-50.396946,-154.847336,-10.923664
1.471680,-1.062988,0.693115,-60.175571,-79.946564,-44.473282
1.030273,-1.322754,1.628906,-49.320610,-32.541985,-74.557251
0.692383,-1.264893,1.984314,19.908398,50.763359,-78.091606
0.419434,-0.820801,1.984314,85.465652,123.076332,-71.366409
0.127441,-0.295898,1.984314,107.274811,146.816788,-54.809162
-0.104736,0.546143,1.984314,110.824425,131.091599,-21.916031
-0.141357,1.240234,1.984314,79.664124,143.007629,-7.297710
-0.171387,1.474365,1.984314,26.145039,124.206108,-11.625955
-0.077393,1.423340,1.984314,1.305344,58.076336,-6.145038
0.349121,1.466309,1.950439,10.458015,6.770992,5.114504
0.774170,1.559570,0.896484,7.488550,-16.190840,-24.381680
1.075195,1.409180,-0.140625,38.152672,-44.946564,-30.450382
1.397217,1.230957,-1.419922,44.488548,-57.969467,-6.442748
1.662109,1.003662,-2.000000,40.977100,-59.206108,-1.114504
1.680176,0.644775,-2.000000,15.267176,-66.267174,-12.091603
1.512207,0.156006,-2.000000,-2.595420,-79.000000,-18.015266
1.296631,-0.357178,-2.000000,-16.763359,-87.335876,-11.854961
1.023193,-0.747559,-2.000000,-26.335878,-79.099236,-4.938931
0.671631,-0.991455,-2.000000,-30.992367,-48.931297,-5.343512
0.245117,-1.119873,-1.307129,-34.083969,0.816794,-3.625954
1.516357,0.096191,-2.000000,-39.862595,29.763359,-0.068702
1.170410,-0.427734,-2.000000,-42.374046,72.297707,9.687023
0.724121,-0.869873,-2.000000,-44.061069,102.969467,26.175573
0.269775,-1.116699,-2.000000,-28.061069,121.931297,43.053436
-0.156494,-1.194092,-0.791504,-3.977099,129.526718,50.770992
-0.543945,-1.118164,0.598877,16.083969,120.580154,49.770992
-0.850098,-0.887939,1.974854,29.206106,98.396950,42.229008
-1.041992,-0.536865,1.984314,35.549618,67.335876,31.167938
-1.069580,-0.157959,1.984314,33.213741,24.969465,22.755726
-0.901123,0.265869,1.984314,29.862595,-18.106871,14.053435
-0.565430,0.651367,1.984314,37.702290,-29.045801,16.618320
-0.200195,0.941162,1.984314,11.007633,-49.038166,31.557251
0.263184,1.153320,1.984314,22.870230,-57.793892,29.633587
0.719971,1.323486,0.960937,29.198473,-62.114502,32.809162
1.226563,1.764160,-0.669922,-32.381680,-73.183205,79.152672
1.794189,1.861084,-2.000000,-118.496185,-74.770996,96.167938
1.984314,1.618164,-2.000000,-166.106873,-96.908394,90.213737
1.984314,0.795410,-2.000000,-213.244278,-147.274811,105.709923
1.984314,0.683838,-2.000000,-183.763351,208.625961,44.549618
1.984314,-0.057373,-2.000000,-175.030533,240.053436,62.358780
1.984314,-0.798340,-2.000000,-107.725189,48.595421,-28.335878
1.984314,-1.414063,-2.000000,-76.465652,29.358778,-100.679390
1.076416,-0.962646,-0.959717,-31.175573,93.679390,-129.748093
0.059570,-0.223145,0.685303,37.870228,235.656494,-56.992367
-0.804932,0.155518,1.349609,29.236641,138.236649,-14.106871
-0.668457,0.107666,1.984314,41.847328,-53.083969,63.534351
0.037354,0.101074,1.984314,19.900763,-195.488556,49.564884
1.353760,-0.112305,1.984314,32.312977,-141.091599,-11.099236
1.309326,-0.000977,1.984314,40.358780,-38.053436,-57.160305
0.787354,0.216797,1.984314,43.633587,-105.404579,-91.450378
0.737061,0.173340,1.984314,97.175575,-96.465652,-77.229004
1.061523,0.772705,1.984314,144.366409,-74.572517,-84.641220
1.216309,1.460938,1.984314,157.625961,-38.274811,-101.419846
1.145264,1.959717,1.984314,137.526718,-20.923664,-73.229004
1.119629,1.984314,1.616455,62.946564,-12.114504,-58.557251
0.906006,1.790527,0.707764,28.244274,5.175572,-27.442749
1.041504,1.482422,-0.414307,17.625954,-33.045803,24.534351
1.367920,1.402832,-1.469238,14.832061,-89.564888,-12.877863
1.540039,1.160889,-2.000000,35.007633,-137.129776,-50.435116
1.800781,0.926758,-2.000000,47.206108,-142.274811,-36.175571
1.969971,0.635986,-2.000000,34.259541,-103.496185,-28.129770
1.806885,0.215820,-2.000000,8.076336,-53.541985,-42.694656
1.346436,-0.312500,-2.000000,-18.206106,-21.824427,-44.625954
0.874756,-0.738770,-2.000000,-30.603054,6.992366,-17.847328
0.472900,-1.010986,-2.000000,-35.916031,38.038166,8.213740
0.098145,-1.167969,-1.168213,-33.648853,72.358780,19.740458
-0.281006,-1.166016,0.225830,-26.297710,104.519081,20.946566
