ax,ay,az,gx,gy,gz
0.538818,0.420898,0.690186,-61.839695,9.312977,-133.419846
0.430420,0.378906,0.780518,-75.022903,20.908398,-102.793892
0.441650,0.438477,0.737061,-88.610687,23.702290,-77.015266
0.450684,0.415771,0.712891,-104.900764,17.717558,-82.786263
0.409912,0.274902,0.707275,-115.145035,11.717557,-91.000000
0.400879,0.143555,0.715820,-120.274811,12.419847,-93.351143
0.423340,0.135742,0.713135,-124.412216,19.106871,-95.977097
0.397217,0.165039,0.741699,-126.366409,25.053434,-93.480919
0.351563,0.205322,0.747314,-127.145035,27.320610,-89.068703
0.350586,0.275879,0.721680,-140.122131,27.778625,-91.106873
0.306396,0.290527,0.691650,-163.038162,25.152672,-92.465652
0.260010,0.210937,0.654785,-183.687027,18.839695,-85.923668
0.197998,0.055176,0.647949,-199.885498,8.702291,-73.206108
0.217773,-0.072754,0.734863,-198.877869,5.229008,-62.129772
0.257568,-0.099609,0.756348,-185.595413,5.015267,-57.580154
0.277100,-0.100342,0.881592,-159.732819,8.534351,-52.671757
0.319336,-0.063721,0.987793,-130.793900,10.954199,-46.488548
0.377930,0.041016,0.989746,-108.641220,17.717558,-41.580154
0.331055,0.093994,0.919678,-101.374046,23.160305,-35.290077
0.251221,0.029297,0.945801,-92.274811,17.160305,-23.648855
0.307373,-0.021973,1.031738,-77.305344,14.381680,-16.961832
0.380127,0.027832,0.993652,-66.870232,19.511450,-24.358778
0.369385,0.064209,0.988770,-61.755726,28.320610,-26.152672
0.333008,0.120117,1.019043,-60.465649,28.297710,-24.847328
0.343994,0.173096,1.107422,-55.908398,25.732824,-23.030535
0.387695,0.195801,1.198975,-42.595421,28.969465,-22.358778
0.417480,0.204102,1.273438,-24.297710,39.717556,-30.641222
0.386475,0.233398,1.221436,-7.618320,50.335876,-42.374046
0.298584,0.252930,1.145264,-2.083969,56.282444,-51.229008
0.219971,0.229004,1.017578,-3.427481,53.854961,-56.442749
0.165771,0.200195,0.972168,-9.053435,49.770992,-60.679390
0.166504,0.179199,1.007324,-8.763359,46.282444,-64.366409
0.184814,0.196777,1.071777,-7.244275,46.587788,-70.152672
0.171143,0.226074,1.127686,-5.625954,48.091602,-74.099236
0.148193,0.217285,1.128662,0.404580,47.526718,-80.213737
0.165771,0.111084,1.184082,19.167938,48.206108,-96.709923
0.214111,-0.026123,1.194336,54.587788,56.770992,-121.595421
0.120850,-0.038086,1.036865,72.061066,62.122139,-135.282440
-0.003174,-0.042480,0.984375,86.198471,60.076336,-120.381676
-0.025146,-0.056641,0.919922,100.343513,53.160305,-108.183205
0.024414,-0.099365,0.919434,120.343513,46.206108,-108.389313
-0.000732,-0.176270,0.888916,133.427475,45.389313,-93.938934
-0.046631,-0.066162,0.780762,125.671753,43.419846,-76.664124
-0.000977,0.052734,0.729004,114.740456,21.549618,-77.404579
0.059570,0.075928,0.784668,102.175575,11.946565,-79.297707
-0.001709,-0.017578,0.744629,97.213737,-0.641221,-59.564884
0.019531,-0.101563,0.761475,97.977097,-7.824428,-36.954197
0.064697,-0.070557,0.771240,92.053436,-11.541985,-14.015267
0.106934,0.032715,0.687500,76.145035,-17.419847,1.763359
0.175293,0.101563,0.695312,50.549618,-24.442749,2.671756
0.210693,0.058838,0.768799,25.022902,-27.549618,7.847328
0.212891,-0.044434,0.776123,4.038168,-27.221375,20.267176
0.216064,-0.076172,0.764160,-19.908398,-22.251909,43.358780
0.240234,-0.018555,0.874268,-37.114502,-10.427481,67.961830
0.235352,0.047607,0.611816,-57.992367,-11.954199,82.984734
0.240723,0.011475,0.572998,-88.213737,-16.297710,94.450378
0.215088,-0.034424,0.559814,-109.801529,-23.320610,112.030533
0.204834,-0.070557,0.792236,-117.236641,-31.694656,129.061066
0.231934,-0.077637,0.743408,-111.679390,-39.030533,141.152664
0.260742,-0.144287,0.735596,-114.603050,-48.503819,147.442749
0.264648,-0.241455,0.762695,-111.503815,-54.015266,155.068695
0.288086,-0.316650,0.845947,-98.083969,-56.534351,163.900757
0.345215,-0.322021,0.917969,-66.419846,-56.717556,171.167938
0.419922,-0.296631,1.045166,-20.534351,-49.251907,173.473282
0.493652,-0.205322,1.043213,31.610687,-32.801525,169.595413
0.509033,-0.090820,1.060791,84.389313,-7.893130,159.977097
0.452393,0.041992,0.996826,121.748093,12.267176,148.717560
0.349365,0.187012,0.902588,137.717560,19.312977,142.145035
0.281738,0.338135,0.819336,130.633591,11.648855,140.145035
0.272705,0.428223,0.762939,105.305344,-4.450382,137.358780
0.289795,0.418945,0.789795,70.702293,-22.290077,130.824432
0.325195,0.312256,0.887207,49.984734,-37.839695,122.007637
0.387451,0.276367,0.967529,42.961834,-43.824429,116.244278
0.456543,0.342773,1.020264,44.282444,-42.328243,110.923668
0.478271,0.404541,1.028564,42.748093,-38.694656,101.916031
0.447510,0.402344,1.041260,34.671757,-37.412212,94.816795
0.406738,0.358154,1.060303,26.366413,-38.312977,90.015266
0.382813,0.304199,1.101563,21.900763,-38.351147,87.244278
0.385498,0.275635,1.116699,19.549618,-37.106869,82.824425
0.381592,0.279785,1.088867,16.076336,-33.748093,76.633591
0.355225,0.312256,1.019287,8.129771,-30.465649,69.755722
0.308350,0.314453,0.919189,-4.541985,-33.877861,65.114502
0.277344,0.264648,0.852051,-21.312977,-39.854961,64.030533
0.276611,0.206543,0.828857,-30.954199,-47.946564,66.320610
0.335205,0.205566,0.883301,-35.923664,-50.549618,68.404579
0.376953,0.196045,0.924316,-33.465649,-51.053436,61.625954
0.391846,0.164551,0.906494,-32.167938,-52.320610,56.083969
0.382324,0.187988,0.902832,-32.564884,-46.190838,63.557251
0.390869,0.208496,0.866699,-29.694656,-48.488548,61.290077
0.406738,0.185547,0.855225,-27.900763,-52.114502,53.603054
0.430176,0.158203,0.846680,-26.786259,-51.572517,50.511452
0.457275,0.145752,0.799072,-25.145039,-49.969467,48.954197
0.458252,0.150146,0.752930,-24.717558,-46.564884,46.122139
0.442871,0.144287,0.760010,-23.717558,-45.748093,45.366413
0.460937,0.143555,0.740723,-19.129770,-49.862595,45.076336
0.509766,0.179199,0.681641,-16.564886,-47.068703,44.183205
0.535156,0.215576,0.653564,-20.404581,-41.923664,42.839695
0.540283,0.218262,0.673096,-29.480917,-45.259541,40.343510
0.558350,0.191650,0.736572,-34.076336,-47.763359,39.908398
0.593506,0.165527,0.802979,-34.366413,-46.541985,38.267174
0.617676,0.139893,0.820801,-31.351145,-45.335876,34.732826
0.618164,0.089355,0.842529,-26.419847,-43.801525,32.648853
0.637939,0.062012,0.855957,-18.679390,-42.312977,31.152672
0.667480,0.075928,0.865967,-11.664123,-39.641220,28.152672
0.689697,0.102539,0.869873,-9.083969,-35.801525,23.145039
0.682373,0.105225,0.883301,-9.603053,-34.198475,17.114504
0.679199,0.051514,0.912842,-11.022901,-33.587788,13.694656
0.689209,-0.000488,0.906494,-10.206107,-31.564886,11.946565
0.696045,-0.017822,0.908447,-6.137404,-28.648855,11.557252
0.707275,0.022217,0.895508,-2.839695,-22.870230,13.778625
0.713379,0.076172,0.859863,-4.274809,-19.809160,8.183207
0.689453,0.089111,0.844482,-8.916031,-19.320610,2.190840
0.676514,0.096924,0.783691,-22.274809,-22.076336,-6.358778
0.664551,0.014893,0.912354,-17.977098,-29.854961,9.580153
0.740967,-0.056885,0.865723,-21.366413,-29.091602,0.961832
0.732910,-0.079102,0.899170,-20.541985,-17.610687,-4.022901
0.710693,-0.032959,0.874268,-24.480917,-11.114504,-4.839694
0.681641,-0.044189,0.849365,-27.801527,-14.251908,-12.603053
0.618652,-0.115234,0.888916,-27.458015,-21.068703,-14.549619
0.583740,-0.244385,0.845215,-28.854961,-30.534351,5.839694
0.642822,-0.298340,0.834473,-35.000000,-32.648853,31.213741
0.732178,-0.275391,0.865967,-34.030533,-30.694656,28.343512
0.759033,-0.252197,0.922119,-11.389313,-21.763359,16.160305
0.770020,-0.197754,0.949219,14.320611,-8.877863,1.824427
0.733154,-0.151123,0.969238,22.717558,4.305344,0.832061
0.745850,-0.110107,0.948975,30.114504,17.458015,14.847328
0.706787,-0.054199,0.824707,17.206106,20.145039,1.351145
0.661133,-0.069824,0.810059,-6.908397,26.580153,-12.305344
0.581055,-0.129883,0.895508,-20.534351,17.748091,-4.473282
0.637939,-0.137451,0.896240,-19.290077,15.595420,2.740458
0.647461,-0.154541,0.899902,-17.396946,18.229008,3.206107
0.638428,-0.140381,0.908203,-17.480917,22.320610,8.076336
0.635010,-0.102051,0.903809,-15.221375,22.969465,5.671756
0.617187,-0.123779,0.933594,-8.984733,22.984734,3.229008
0.612061,-0.133545,0.910645,-2.007634,25.290077,4.587786
0.600342,-0.117432,0.882324,-0.335878,27.053434,6.442748
0.583740,-0.062256,0.881348,0.946565,29.091602,5.244275
0.573730,-0.007324,0.873535,0.961832,29.213741,0.656489
0.568115,0.033203,0.867187,-2.534351,29.679390,-4.633588
0.556885,0.051270,0.866699,-9.465649,29.664122,-7.916030
0.553711,0.057129,0.863525,-12.305344,28.877863,-10.244275
0.538818,0.029053,0.859375,-14.198473,29.442749,-10.160305
0.526855,-0.019531,0.828857,-14.854961,31.038168,-7.770992
0.497803,-0.017090,0.822510,-11.854961,33.221375,-2.244275
0.490723,-0.001953,0.805664,-5.404580,29.633587,2.091603
0.500000,0.006836,0.817627,2.656489,26.656488,1.839695
0.505859,0.027100,0.811035,9.526717,25.595419,1.725191
0.512939,0.057617,0.815186,10.251908,26.175573,3.694656
0.498535,0.084473,0.788330,5.244275,26.908398,3.809160
0.491943,0.081543,0.794678,-3.450382,22.000000,0.984733
0.495850,0.015869,0.821777,-8.190840,16.320610,-0.450382
0.527832,-0.039551,0.864990,-5.519084,17.114504,-0.496183
0.552002,-0.052246,0.868408,2.351145,20.305344,-2.000000
0.557373,-0.019287,0.878906,9.152672,23.725191,-3.198473
0.548096,0.003662,0.880615,12.412213,26.778625,-3.755725
0.547119,0.003906,0.856445,9.793893,26.083969,-3.954198
0.563721,-0.031494,0.895508,8.984733,26.114504,-4.877862
0.589844,-0.037354,0.885986,12.549619,30.328245,-6.580153
0.598877,-0.058838,0.888428,14.931297,35.786259,-12.129771
0.577393,-0.085693,0.891357,18.274809,36.938931,-13.351145
0.586670,0.016602,0.935547,15.213740,38.404579,-8.183207
0.615967,0.082520,1.013916,18.793894,37.282444,-6.793893
0.632812,0.047852,0.981445,18.748091,40.091602,-25.740458
0.564941,0.015869,0.985840,10.748092,47.206108,-34.038166
0.552246,0.021729,0.959473,6.801527,52.641220,-32.862595
0.540771,0.020508,0.861084,-0.732824,58.137405,-39.038166
0.461182,-0.016113,0.833496,-6.541985,62.496181,-43.740459
0.399658,-0.069336,0.824707,-4.320611,56.687023,-44.938931
0.392822,-0.130127,0.840576,-3.167939,49.122139,-45.396946
0.435303,-0.100830,0.944336,9.229008,52.709923,-46.335876
0.447510,0.018311,0.914307,10.664123,58.977100,-56.908398
0.382324,0.103760,0.906494,5.465649,58.625954,-55.709923
0.348389,0.132812,0.894043,-6.259542,52.259541,-49.358780
0.337402,0.043213,0.953857,-14.541985,42.770992,-41.572517
0.349854,-0.027588,0.941162,-18.083969,37.244274,-42.862595
0.368408,-0.066895,0.920166,-5.122138,41.381680,-39.580154
0.306396,-0.080322,0.829590,-2.374046,42.236641,-34.526718
0.284912,-0.015625,0.826172,-1.030534,40.351147,-27.519083
0.285400,0.062500,0.820312,1.603053,30.908398,-33.664124
0.298584,0.085693,0.822021,-0.198473,23.091602,-37.366413
0.297607,0.024170,0.859619,-1.381679,19.053434,-28.938931
0.354004,0.013184,0.920410,5.221374,22.587786,-18.839695
0.369873,0.025879,0.946777,13.160305,25.816793,-14.816793
0.376709,0.082764,0.891846,18.687023,25.389313,-16.809160
0.351074,0.105225,0.855469,17.045801,18.106871,-14.022901
0.372559,0.101807,0.840820,15.923664,9.343512,-6.274809
0.407227,0.083008,0.855713,12.679389,4.709924,-7.931298
0.420898,0.036865,0.880371,13.923664,3.053435,-9.557252
0.432373,0.002686,0.867187,15.870229,3.786260,-10.022901
0.447510,0.022217,0.833008,15.045801,5.137404,-12.381680
0.453857,0.029297,0.821289,12.564885,3.198473,-14.595420
0.457031,0.020264,0.822998,6.229008,-1.717557,-16.366413
0.459717,0.012451,0.857422,-1.572519,-6.816794,-16.335878
0.475586,0.039795,0.860596,-11.290076,-10.160305,-16.992367
0.470947,0.080811,0.838623,-27.725191,-12.839695,-22.526718
0.434326,0.067383,0.850830,-46.000000,-19.038168,-25.687023
0.432373,-0.009766,0.860352,-64.450378,-27.748091,-26.167938
0.448242,-0.136475,0.882568,-71.755722,-35.328243,-25.656488
0.467285,-0.290771,0.906738,-67.732826,-36.419846,-21.503817
0.499023,-0.370361,0.925293,-55.511452,-30.519083,-17.404581
0.494385,-0.373047,0.939209,-38.236641,-22.427481,-15.190840
0.470215,-0.318359,0.924561,-24.603054,-14.282443,-9.770992
0.442871,-0.257568,0.911865,-20.396946,-11.007633,-2.427481
0.409424,-0.220703,0.921143,-20.274809,-6.717557,4.526718
0.378174,-0.198730,0.923584,-20.198473,-4.908397,10.381680
0.373535,-0.112549,0.955811,-12.793893,-2.496183,16.374046
0.353027,-0.079346,0.881592,-8.145039,0.076336,21.526718
0.304688,-0.064209,0.783691,6.847328,-0.603053,32.068703
0.287598,-0.065186,0.737793,28.213741,-4.656488,46.641220
0.303223,0.017578,0.794189,46.122139,-8.786260,43.129772
0.333008,0.200195,0.873291,58.419846,-13.488549,32.961834
0.252686,0.213379,0.865479,63.022900,-31.648855,32.091602
0.297363,0.320313,0.854980,45.114502,-31.320610,43.885498
0.345947,0.378906,0.761230,26.580153,-32.549618,47.992367
0.345703,0.316895,0.732422,11.374045,-36.709923,36.969467
0.318604,0.197998,0.769531,10.076336,-39.282444,23.496183
0.340088,0.149658,0.822510,22.404581,-41.343510,11.435115
0.381836,0.154053,0.879150,41.557251,-39.030533,-2.763359
0.387451,0.170166,0.871826,59.061069,-38.740459,-10.374045
0.349609,0.144775,0.793945,55.526718,-30.572519,-0.732824
0.257324,0.053223,0.724609,33.885498,-22.122137,26.450382
0.190918,-0.011963,0.643555,17.083969,-25.458015,49.343510
0.170654,-0.083984,0.626465,7.656488,-39.175571,60.030533
0.248779,-0.053467,0.608154,5.083970,-50.519085,61.816795
0.325439,0.010254,0.620605,1.198473,-56.000000,53.595421
0.340576,0.052002,0.623291,-9.190840,-57.885498,42.679390
0.319336,0.013184,0.640869,-21.801527,-63.694656,33.297710
0.347900,-0.070557,0.670410,-27.442749,-72.244278,29.687023
0.423340,-0.142334,0.713379,-28.129770,-72.045799,31.931297
0.485107,-0.188721,0.776611,-19.007633,-64.801529,38.244274
0.511230,-0.241211,0.802246,3.603053,-59.954197,46.610687
0.511475,-0.331543,0.898682,43.679390,-52.633587,54.969467
0.554443,-0.308350,0.913330,96.603050,-41.328243,57.923664
0.626465,-0.139160,0.905518,145.595413,-24.885496,53.870228
0.675537,0.132324,0.833008,174.816788,-9.404580,46.244274
0.676270,0.420898,0.724121,174.969467,2.267176,33.549618
0.596436,0.626465,0.531982,149.000000,-0.175573,22.259542
0.517822,0.687988,0.514404,104.786263,-11.404580,17.847328
0.507080,0.660156,0.573730,57.541985,-29.824427,11.061069
0.534912,0.527588,0.738525,23.992367,-48.328243,8.114504
0.612793,0.399658,0.872803,9.435115,-55.717556,9.480916
0.669678,0.299805,0.917969,11.931297,-54.396946,5.709924
0.691895,0.202148,0.940674,25.946566,-46.503819,2.450382
0.718750,0.185059,0.894043,35.236641,-39.366413,-5.450382
0.717529,0.235107,0.885742,42.038166,-37.740459,-10.580153
0.710937,0.281250,0.851807,36.832062,-39.297710,-13.259542
0.689453,0.296387,0.810303,17.022902,-46.229008,-11.648855
0.663574,0.416260,0.781250,-16.977098,-56.083969,-5.282443
0.671631,0.213379,0.669189,-61.053436,-64.877861,-28.022902
0.686279,-0.068604,1.239502,-76.297707,-72.946564,21.625954
0.838135,-0.311035,1.025146,-107.442749,-82.633591,3.900763
0.911865,-0.311035,1.468262,-78.946564,-64.419846,-2.671756
0.817383,-0.473877,1.298340,-63.954197,-68.786263,-20.580153
0.834717,-0.587402,1.409180,-20.229008,-47.053436,-6.786260
0.965088,-0.348389,1.264893,12.328244,-12.137404,-25.236641
0.829590,-0.265869,1.149902,44.503819,-5.931298,-34.167938
0.730957,-0.009521,0.983398,34.290077,-0.954198,-34.572517
0.685059,-0.117188,1.208008,24.282442,3.511450,20.129770
1.004150,0.252441,0.964111,19.931297,40.282444,70.786263
1.014404,0.511475,0.629639,-68.832062,36.175571,-51.786259
0.604004,0.106445,0.919922,-118.007637,13.091603,-99.099236
0.522217,0.036133,0.363770,-156.083969,-27.114504,-69.824425
0.457031,-0.187256,0.588867,-184.931305,-20.091602,9.106871
0.659180,-0.364990,0.671387,-159.519089,-18.343512,27.419847
0.724121,-0.292725,0.498535,-123.572517,-34.129772,-15.389313
0.660645,-0.234375,0.493652,-82.793892,-22.114504,-23.656488
0.597900,-0.171143,0.460449,-43.381680,-4.030534,-1.465649
0.615723,-0.070312,0.609131,-17.702290,-7.603054,1.931298
0.644287,-0.006592,0.751709,0.335878,-10.870229,-11.038168
0.627930,0.049805,0.778809,8.801527,-0.290076,-14.404580
0.523437,0.051514,0.692383,10.320611,15.877863,-1.702290
0.419189,0.036133,0.605225,16.358778,11.908397,10.358779
0.427246,0.234619,0.563477,11.847328,4.167939,29.648855
0.482910,0.308105,0.436279,9.503817,-11.389313,19.877863
0.501221,0.273438,0.415527,-12.870229,-15.496183,29.068703
0.527100,0.192139,0.440430,-19.213741,-19.595419,29.862595
0.573730,0.018799,0.611328,2.190840,-24.381680,36.198475
0.654785,0.192871,0.525635,1.038168,-37.709923,-5.625954
0.553467,0.107910,0.695557,25.175573,-40.870228,19.442749
0.750977,0.206787,0.800781,43.778625,-15.778625,65.106873
0.834473,0.262451,0.762451,50.175571,-5.755725,47.618320
0.734863,0.083496,0.912354,44.282444,-8.366412,33.061069
0.814697,-0.154785,1.052490,58.358780,-8.694656,28.847328
0.866699,-0.439697,1.205811,95.022903,-27.458015,2.068702
1.065674,-0.477539,1.204590,154.801529,3.656489,23.435114
1.279541,-0.199707,1.131836,178.022903,42.320610,-13.030535
0.894531,-0.468018,1.248779,231.587784,30.061069,-38.297710
0.994385,0.479004,0.534668,248.175568,69.106873,-37.534351
0.801025,0.810059,0.480469,194.664124,47.557251,-64.755722
0.618408,0.860107,0.500000,84.137405,20.183207,-50.610687
0.761475,1.023926,0.504883,-32.519085,10.885496,-8.213740
0.669434,0.573975,0.373291,-134.305344,-29.557251,-31.816793
0.659424,0.019531,0.743408,-192.229004,-40.175571,-26.732824
0.607422,-0.426025,1.023926,-168.519089,-56.267174,-14.419847
0.901611,-0.426270,1.207764,-108.473282,-42.282444,0.801527
1.096436,-0.248291,1.168457,-53.541985,4.587786,-17.946566
1.020508,-0.068848,0.991455,-23.259542,54.045803,-37.305344
0.775146,0.114502,0.906250,-20.977098,69.412216,-47.725189
0.630859,0.275635,0.876953,-39.893131,52.374046,-41.832062
0.679687,0.365723,0.869873,-71.106873,28.343512,-40.641220
0.787109,0.306885,0.965088,-94.916031,18.396946,-47.938931
0.809326,0.170654,1.009033,-104.709923,29.007633,-51.877861
0.751953,0.108643,0.976807,-105.061066,43.541985,-49.366413
0.682861,0.100342,0.911865,-106.274811,51.190838,-46.419846
0.606445,0.087891,0.813965,-109.595421,52.145039,-45.877861
0.542480,0.067383,0.787109,-114.160309,45.465649,-46.129772
0.538574,0.037354,0.795898,-112.908394,37.297710,-41.053436
0.559082,-0.019043,0.809326,-105.770996,37.564884,-39.213741
0.551514,-0.026123,0.851562,-97.083969,41.282444,-36.870228
0.505371,0.062256,0.787598,-92.458015,46.412212,-28.954199
0.437988,0.125000,0.694824,-98.412216,40.541985,-29.198473
0.388428,0.103271,0.683838,-106.572517,27.618320,-24.526718
0.422607,0.080322,0.620117,-104.519081,17.610687,-23.473282
0.409180,0.016846,0.492920,-106.083969,7.137404,-28.015266
0.445557,0.033936,0.484375,-96.641220,3.343511,-24.587786
0.403564,-0.024170,0.551270,-91.312981,0.427481,-26.671755
0.477539,0.045898,0.581055,-87.167938,-5.503817,-24.755726
0.496582,0.072021,0.522461,-95.541985,-7.099236,-22.427481
0.465820,0.058838,0.513184,-107.587784,-5.435114,-17.152672
0.438721,0.016357,0.461914,-102.519081,-12.045801,-16.282442
0.414551,-0.113281,0.499512,-91.900764,-21.229008,-13.908397
0.502930,-0.193848,0.557861,-68.061066,-28.160305,-8.312977
0.615723,-0.185303,0.635986,-41.496181,-22.496183,-10.679389
0.651611,-0.127197,0.689697,-20.190840,-12.511451,-10.068703
0.674316,-0.065918,0.743408,-16.679390,-3.656489,-9.290076
0.685059,0.013184,0.680908,-15.473283,-1.893130,-10.251908
0.646484,0.096680,0.683838,-25.351145,-3.832061,-14.122137
0.635742,0.066406,0.632324,-35.259541,-8.984733,-9.778625
0.663330,-0.010742,0.613281,-46.725189,-11.610687,-16.076336
0.654541,-0.171875,0.666016,-48.816795,-14.007633,-18.603054
0.691895,-0.257324,0.760498,-33.282444,-9.099236,-19.541985
0.710937,-0.288818,0.797607,-15.801527,-0.251908,-21.709923
0.702148,-0.291748,0.861816,-2.725191,6.618320,-21.786259
0.692383,-0.265625,0.909424,6.908397,8.167939,-19.610687
0.693604,-0.219971,0.905762,5.740458,7.595420,-13.549619
0.695312,-0.174561,0.791992,-3.549618,7.282443,-9.648855
0.688965,-0.157471,0.714600,-22.419847,5.061069,-14.419847
0.629883,-0.298096,0.680908,-33.343510,-0.488550,-9.893129
0.696777,-0.320313,0.716064,-36.931297,-3.572519,-14.748092
0.670898,-0.475342,0.849365,-34.580154,-1.610687,-6.366412
0.703857,-0.537842,0.880127,-21.000000,4.366412,-1.603053
0.699707,-0.517578,0.927979,-2.259542,10.648855,-0.656489
0.678223,-0.432617,0.924805,11.038168,16.358778,3.778626
0.676270,-0.328125,0.877441,18.251909,17.473282,6.206107
0.694092,-0.166992,0.774170,13.885496,12.015267,6.229008
0.631348,-0.115723,0.657959,-2.167939,6.320611,9.061069
0.557617,-0.239990,0.816650,-29.045801,3.687023,12.603053
0.613525,-0.304443,0.845459,-24.137405,-3.763359,20.129770
0.694580,-0.228760,0.779541,-21.206106,-0.541985,10.541985
0.654297,-0.261719,0.803467,-16.687023,13.259542,13.305344
0.575928,-0.343750,0.857422,-9.793893,21.335878,14.893129
0.531738,-0.346680,0.893799,9.908397,15.931297,22.335878
0.606689,-0.215088,0.921387,22.335878,14.633588,20.648855
0.626465,-0.120850,0.989258,20.137405,21.412214,22.000000
0.651855,-0.062500,1.197998,25.648855,28.969465,27.320610
0.627441,0.174072,0.577148,20.022902,16.687023,20.595419
0.563477,0.177490,0.448730,-25.465649,32.343510,6.106870
0.441895,0.023682,0.569824,-42.534351,11.007633,-6.351145
0.636230,-0.007080,0.650146,-31.511450,-0.083969,-16.221375
0.722412,-0.006836,0.701416,-11.366412,16.725191,-16.541985
0.662109,0.093994,0.546631,-29.694656,35.312977,-19.335878
0.432373,-0.146973,0.781250,-51.366413,37.442749,-39.320610
0.333496,-0.284912,0.823486,-31.694656,12.198473,-15.816793
0.405518,-0.297852,0.736816,-40.221375,3.740458,-16.114504
0.575439,-0.212158,0.652588,-31.931297,14.320611,-15.534351
0.397461,-0.354736,0.870850,-34.938931,24.045801,-11.068703
0.412842,-0.424072,0.888916,-13.480916,16.717558,3.450382
0.383545,-0.425537,0.944824,-11.435115,10.076336,-9.442748
0.516113,-0.296631,0.755859,22.396946,8.625955,4.763359
0.500000,-0.183350,0.538086,3.106870,9.335877,-16.007633
0.527344,-0.139893,0.595947,4.381680,11.893129,0.694656
0.485107,-0.175537,0.849609,-4.114504,4.442748,-10.526717
0.579346,-0.126709,0.778809,3.618321,-5.893130,-12.091603
0.582031,-0.055908,0.755859,-20.358778,9.862596,-24.251909
0.509766,-0.203857,0.802979,-33.206108,14.221375,-13.656488
0.556396,-0.315674,0.912842,-35.969467,11.419847,-15.267176
0.585937,-0.381592,0.927246,-23.992367,9.885496,-16.740458
0.739990,-0.245117,0.826660,-0.496183,20.496183,-24.809160
0.636719,-0.278564,0.870117,0.213740,32.732826,-23.801527
0.712402,-0.087402,0.681152,10.557252,32.526718,-18.534351
0.569092,-0.140869,0.775146,-15.984733,24.816793,-39.229008
0.643311,-0.110352,0.706299,-8.198473,14.198473,-26.435114
0.644287,-0.117432,0.711670,-37.076336,14.068703,-47.488548
0.706787,-0.144287,0.796631,-37.297710,15.167939,-42.175571
0.591064,-0.328857,0.709473,-46.946564,17.404581,-43.725189
0.639893,-0.389160,0.643799,-40.526718,15.358779,-52.175571
0.658691,-0.403320,0.918213,-25.580153,23.419847,-49.877861
0.572510,-0.462158,0.895752,-20.297710,25.801527,-34.854961
0.511230,-0.481934,0.699707,-3.664122,28.770992,-25.351145
0.509766,-0.414795,0.625732,7.381680,28.755726,-27.832062
0.540039,-0.363281,0.830811,12.167939,23.961832,-24.427481
0.550293,-0.339355,0.928223,14.145039,21.503817,-14.206107
0.569092,-0.308594,0.886963,15.946565,24.801527,-11.251908
0.564453,-0.280518,0.715576,17.007633,27.885496,-8.351145
0.549561,-0.213379,0.600342,14.702291,27.450382,-14.496183
0.449951,-0.281250,0.692139,4.984733,29.091602,-8.717557
0.462402,-0.322510,0.958984,5.030534,28.595419,-6.221374
0.580078,-0.247314,1.163330,20.267176,24.312977,-9.030535
0.677002,-0.324707,1.487061,30.694656,33.816795,-7.312977
0.805176,-0.140869,0.955811,44.129772,39.068703,9.969465
0.688721,-0.034424,0.807861,-1.778626,68.473282,-4.511450
0.385742,-0.413086,0.978027,0.206107,61.274811,-7.595420
0.285889,-0.489990,1.006104,24.847328,51.862595,14.152672
0.504150,-0.222412,0.852783,55.572517,39.755726,19.893129
0.490723,-0.076660,0.804443,42.015266,48.305344,5.419847
0.343262,-0.082031,0.940674,32.122139,63.335876,17.694656
0.223633,-0.164062,0.744873,17.358778,56.458015,36.015266
0.256592,-0.110840,0.782471,30.389313,44.167938,24.427481
0.214600,-0.112061,0.729004,23.580153,38.236641,28.526718
0.279785,-0.122314,0.877197,39.610687,40.511452,30.435114
0.289551,0.032471,0.679687,52.045803,37.000000,25.854961
0.241455,0.078125,0.735840,41.923664,40.541985,31.251909
0.198486,0.063477,1.094482,27.396946,41.541985,22.114504
0.164062,-0.081055,1.113770,22.618320,35.450382,32.175571
0.366699,0.020996,1.046631,43.412212,26.610687,11.106871
0.395996,0.094727,0.960205,41.091602,29.748091,-6.793893
0.379395,0.017822,0.981445,47.106869,39.931297,1.984733
0.396729,0.029541,0.949951,43.404579,46.618320,4.198473
0.384521,0.151123,0.932129,31.312977,49.290077,-0.282443
0.352051,0.153809,0.919678,7.129771,43.496181,-10.259542
0.331787,0.036621,0.969971,-13.625955,42.381680,-8.839695
0.354736,-0.117676,1.019287,-20.335878,45.007633,-8.679389
0.354492,-0.194824,1.054199,-12.244275,50.061069,-12.221375
0.339844,-0.239990,1.054932,7.251908,55.015266,-14.022901
0.320801,-0.231934,1.016602,28.755726,59.419846,-10.267176
0.293213,-0.142090,0.972168,37.580154,64.068703,-3.656489
0.254150,-0.034424,0.921631,32.183205,65.618324,1.213740
0.201904,0.003174,0.875488,18.671755,60.175571,4.809160
0.167725,-0.008789,0.836182,3.954198,51.175571,5.870229
0.153076,-0.065430,0.868652,-4.694656,42.549618,8.076336
0.173584,-0.122070,0.890137,-2.916031,38.366413,9.343512
0.195068,-0.149658,0.900391,6.709924,37.816795,7.938931
0.181641,-0.146240,0.902588,17.343512,38.412212,7.305344
0.164795,-0.126221,0.871826,25.557251,37.175571,9.587787
0.154053,-0.066162,0.864014,27.259542,34.709923,11.427481
0.135742,-0.006836,0.825439,22.083969,30.580153,12.229008
0.116211,0.011230,0.831543,11.458015,24.251909,13.984733
0.119873,-0.001709,0.861572,0.740458,18.343512,14.015267
0.122803,-0.039795,0.903564,-10.847328,14.603053,13.923664
0.117676,-0.114014,0.975098,-14.671756,15.580153,17.534351
0.131836,-0.129639,0.991211,-5.992366,15.633588,17.931297
0.134521,-0.096680,0.954834,3.587786,17.099237,16.664122
0.117188,-0.073242,0.882812,6.557252,17.977098,20.839695
0.100098,-0.071533,0.870117,5.549618,14.572519,26.061069
0.114014,-0.037842,0.824219,5.786260,8.656488,24.618320
0.123291,-0.010254,0.843018,8.000000,2.862595,21.641222
0.134766,0.046387,0.874023,5.541985,0.427481,23.511450
0.141846,0.055420,0.920654,-2.022901,-1.916031,21.160305
0.135986,-0.002197,0.969971,-8.091603,-4.641222,20.526718
0.151855,-0.059814,1.020996,-11.366412,-6.183206,21.343512
0.187744,-0.107910,1.052734,-8.916031,-7.809160,20.312977
0.234131,-0.099365,1.086670,-0.664122,-3.587786,18.572519
0.252686,-0.082520,1.065430,9.129771,4.923664,14.946565
0.229980,-0.042480,1.050781,15.053435,12.687023,10.725191
0.193848,0.016602,1.012695,16.847328,14.541985,7.213740
0.170166,0.059082,0.977539,11.251908,12.908397,5.732824
0.160156,0.055420,0.979248,1.854962,10.748092,4.099236
0.145996,0.002930,0.967529,-8.770992,8.106871,1.519084
0.132080,-0.049316,1.006348,-11.908397,7.221374,-0.740458
0.130859,-0.048340,1.028564,-8.083969,4.748092,-2.885496
0.140625,-0.043701,1.032227,-1.694656,5.648855,-2.000000
0.153809,-0.042236,1.010254,1.229008,8.587787,-1.282443
0.140625,-0.032471,0.979004,2.106870,10.320611,-0.282443
0.134521,-0.010254,0.945312,1.106870,9.297709,1.312977
0.131104,0.009766,0.939697,-0.732824,7.259542,2.480916
0.134766,0.014404,0.906006,-0.977099,4.045802,3.328244
0.130371,0.012207,0.898193,0.358779,1.022901,3.580153
0.118896,0.015869,0.900146,4.106870,-1.755725,3.572519
0.102051,0.024902,0.883545,7.893130,-6.786260,2.206107
0.091064,0.040039,0.859375,5.687023,-12.129771,2.893130
0.088867,0.062256,0.831787,0.748092,-18.022902,1.801527
0.087402,0.048828,0.795898,-5.854962,-25.671755,0.641221
0.096680,0.024902,0.797607,-12.641221,-31.564886,0.137405
0.119385,0.017334,0.802979,-15.045801,-36.190838,-2.404580
0.121582,-0.032227,0.751953,-15.396947,-42.251907,-3.656489
0.145996,-0.044678,0.757080,-16.442749,-44.221375,-4.404580
0.154053,-0.059326,0.791260,-14.267176,-49.519085,-7.763359
0.178467,-0.044189,0.842041,-11.793893,-54.519085,-6.343512
0.222168,-0.020996,0.897217,-9.274809,-56.183205,-5.000000
0.247314,-0.051025,0.975830,-7.809160,-53.000000,-0.702290
0.264648,-0.042725,1.010986,-6.099236,-47.862595,-0.068702
0.255615,-0.049561,1.055908,-5.832061,-45.381680,0.625954
0.259277,-0.060791,1.079834,-6.473282,-41.267174,4.351145
0.254395,-0.043701,1.045410,-10.083969,-37.938931,3.900763
0.218750,-0.039063,0.992920,-16.236641,-36.290077,6.022901
0.192871,-0.059814,0.938477,-20.702290,-36.709923,12.641221
0.189209,-0.082031,0.878418,-22.076336,-40.160305,18.000000
0.193848,-0.115967,0.890137,-16.824427,-43.763359,22.587786
0.229492,-0.169922,0.960693,-2.709924,-45.549618,28.030535
0.279785,-0.174072,1.023926,15.694656,-41.687023,29.488550
0.304688,-0.108154,0.988770,31.549618,-37.213741,32.946564
0.344482,0.013184,0.932373,36.618320,-30.213741,36.458015
0.348877,0.080078,0.873291,37.748093,-26.282442,36.152672
0.323242,0.073242,0.816406,37.908398,-27.709923,37.404579
0.325684,0.034424,0.830566,35.793892,-34.618320,37.847328
0.392334,-0.017578,0.884277,41.648853,-43.167938,37.122139
0.481201,-0.035156,0.936523,53.519085,-38.290077,29.870230
0.509033,0.033447,0.947754,74.389313,-22.122137,23.389313
0.534424,0.226074,0.913330,93.389313,-8.038168,3.389313
0.526123,0.369141,0.839111,95.305344,-9.053435,-33.251907
0.255371,0.223633,0.869385,66.473282,-16.030535,13.503817
0.462891,0.421387,0.944092,19.374046,2.610687,69.870232
0.650635,0.423096,0.992676,-6.015267,-8.770992,18.511450
0.572021,0.111328,1.083252,2.702290,-20.290077,-50.198475
0.502686,-0.106201,1.178467,36.007633,-11.564885,-61.862595
0.607422,-0.025879,1.170410,77.206108,17.297710,-55.358780
0.642822,0.174561,1.080811,93.625954,46.595421,-52.572517
0.557617,0.309082,0.977295,87.839691,62.923664,-58.061069
0.402100,0.353271,0.915039,62.984734,60.015266,-73.923668
0.270996,0.334229,0.904541,33.916031,41.900764,-89.404579
0.251465,0.270752,0.958740,12.267176,19.305344,-96.244278
0.341309,0.214844,1.005127,-1.137405,11.862596,-99.450378
0.395264,0.194824,1.002686,-7.671756,21.175573,-107.900764
0.333008,0.167969,0.995850,-17.366413,29.129770,-112.282440
0.266357,0.128906,0.991455,-23.679390,26.725191,-112.587784
0.245850,0.046387,1.030273,-25.045801,18.290077,-112.938934
0.276855,-0.036133,1.034180,-14.778625,14.122137,-110.312981
0.313477,-0.053223,1.077637,6.725191,20.572519,-107.206108
0.316650,0.041992,1.087402,30.503817,34.175571,-104.442749
0.309082,0.249023,1.019287,42.862595,44.114502,-102.770996
0.262451,0.401123,0.968750,37.221375,44.603054,-103.221375
0.235352,0.421143,0.980469,23.061069,35.923664,-100.656487
0.266357,0.315674,0.991211,15.519084,27.343512,-96.572517
0.311768,0.182373,1.002930,25.175573,29.236641,-93.679390
0.324219,0.126709,0.981934,53.801525,43.984734,-90.167938
0.262451,0.177734,0.908447,82.908394,57.496181,-87.809158
0.203613,0.265381,0.835449,106.572517,58.374046,-84.458015
0.177002,0.348145,0.818604,114.061066,54.030533,-85.419846
0.174072,0.407471,0.864502,112.618324,46.244274,-84.396950
0.210937,0.430176,0.947998,101.671753,40.259541,-84.007637
0.217285,0.382324,1.000000,88.992363,42.938931,-82.526718
0.153564,0.299072,0.972412,83.755722,51.290077,-77.183205
0.067139,0.263672,0.873779,84.847328,56.236641,-70.145035
-0.028809,0.227295,0.798584,85.992363,53.320610,-62.549618
-0.111572,0.155029,0.784912,82.984734,39.038166,-53.450382
-0.108887,0.075684,0.914307,79.274811,19.671755,-42.541985
-0.036377,0.041992,0.977783,81.427483,9.557252,-35.557251
-0.015137,0.009277,1.012939,86.282440,13.389313,-29.175573
-0.054443,-0.010010,0.939453,98.198471,19.122137,-17.824427
-0.101318,-0.010010,0.807861,112.770996,16.908398,-3.656489
-0.126953,0.118164,0.619629,117.358780,12.847328,7.389313
-0.190186,0.212402,0.557373,98.099236,-1.900763,17.854961
-0.211182,0.213379,0.647949,66.587784,-23.786259,30.664122
-0.144043,0.178223,0.805420,47.625954,-41.977100,39.335876
-0.029541,0.163086,0.873535,47.351147,-49.870228,43.503819
0.047852,0.235352,0.830566,50.114502,-45.503819,43.908398
0.039551,0.361816,0.772949,52.519085,-43.702290,44.938931
0.021729,0.466553,0.684570,42.274811,-53.480915,51.419846
0.050781,0.661865,0.678955,18.488550,-60.480915,49.633587
0.049316,0.733643,0.744873,-24.908398,-81.435112,45.549618
0.053711,0.448242,1.080322,-53.259541,-98.251907,50.015266
0.199951,0.171143,1.401855,-28.984734,-96.992363,51.641220
0.358643,0.265381,1.481445,19.519083,-69.625954,44.366413
0.357178,0.542480,1.281738,43.450382,-30.717558,49.450382
0.246826,0.733887,1.041748,31.083969,-14.763359,56.091602
0.108154,0.794922,0.900391,9.564885,-17.557251,54.442749
0.066650,0.829346,0.877197,-3.137405,-34.213741,46.526718
0.102051,0.840332,0.843994,-3.664122,-52.427483,37.343510
0.184570,0.875977,0.797852,0.175573,-65.129768,31.786259
0.274170,0.938721,0.767822,-0.015267,-71.839691,25.702290
0.338379,0.953613,0.835937,-12.435115,-76.549622,20.709923
0.383545,0.863281,0.930664,-21.259542,-75.381676,19.290077
0.439453,0.719238,1.169189,-19.679390,-66.610687,19.450382
0.514160,0.608887,1.199219,-5.343512,-51.839695,11.190840
0.500000,0.506836,1.172607,14.954199,-26.854961,0.854962
0.406250,0.513672,1.061523,30.412214,-3.603053,-2.343511
0.304688,0.537354,0.937012,31.381680,4.572519,-1.793893
0.263184,0.530029,0.880859,23.045801,3.045802,2.419847
0.278320,0.458008,0.870361,15.870229,-0.129771,6.320611
0.316650,0.321045,0.899902,25.251909,0.587786,9.068703
0.337891,0.241943,0.889160,51.763359,7.213740,11.091603
0.317139,0.279541,0.872314,81.496185,16.938931,13.396947
0.279541,0.355469,0.846191,103.572517,22.824427,15.839695
0.260742,0.555420,0.769531,106.198471,29.992367,13.648855
0.197021,0.645752,0.659668,91.160309,26.351145,10.366412
0.142578,0.587402,0.645264,74.381676,20.244274,15.206107
0.134033,0.546631,0.632568,71.816795,12.549619,16.152672
0.143799,0.576904,0.634521,71.793892,3.938931,14.687023
0.153564,0.643311,0.648682,61.572517,-1.198473,14.480916
0.182861,0.707275,0.644531,36.946564,-3.137405,18.206106
0.194824,0.706787,0.678467,13.190840,-5.709924,23.244274
0.215576,0.661133,0.684326,-3.374046,-9.328244,27.015266
0.250732,0.607666,0.664307,-9.580153,-11.213740,28.480917
0.296143,0.593994,0.631836,-9.969465,-13.717557,29.404581
0.328857,0.609619,0.585693,-11.022901,-13.167939,29.320610
0.322021,0.606445,0.548340,-13.190840,-14.160305,29.801527
0.336182,0.612549,0.499023,-19.503817,-19.992367,30.832062
0.348145,0.592773,0.458496,-28.114504,-24.725191,33.038166
0.354492,0.510010,0.440186,-35.320610,-30.366413,38.641220
0.372803,0.429199,0.456543,-37.343510,-33.625954,44.984734
0.403320,0.463135,0.475586,-33.404579,-35.335876,47.412212
0.430664,0.516357,0.498047,-31.824427,-39.694656,49.274811
0.479980,0.665283,0.549805,-29.251909,-41.251907,47.198475
0.516113,0.734863,0.558350,-31.091602,-42.519085,42.083969
0.537109,0.664307,0.629395,-36.206108,-42.358780,38.633587
0.551758,0.574219,0.639648,-34.404579,-37.709923,32.129772
0.521484,0.489014,0.663086,-26.954199,-30.396946,28.709923
0.490234,0.475586,0.691650,-19.076336,-24.969465,30.992367
0.489258,0.503174,0.724854,-12.496183,-20.908398,32.083969
0.513184,0.512939,0.747070,-9.251908,-21.007633,30.312977
0.559570,0.510986,0.748779,-3.954198,-18.221375,27.595419
0.596191,0.510010,0.730469,-0.076336,-12.450381,24.541985
0.591309,0.550537,0.705566,0.259542,-6.213740,20.587786
0.541992,0.560059,0.706055,-3.045802,-4.923664,16.145039
0.506836,0.556152,0.700195,-8.877863,-7.259542,13.427481
0.496094,0.598877,0.754639,-12.183207,-8.099236,11.274809
0.511963,0.598633,0.802979,-15.893129,-12.809160,9.274809
0.541748,0.555908,0.825195,-17.404581,-11.152672,5.603054
0.524902,0.527100,0.816650,-13.709924,-4.145038,1.954198
0.487061,0.560059,0.795898,-6.938931,1.045802,-0.671756
0.440674,0.605225,0.781982,-5.259542,3.412214,-2.290076
0.411377,0.617432,0.757324,-10.450381,0.114504,-3.648855
0.408447,0.570312,0.745361,-16.297710,-4.396946,-5.122138
0.423828,0.509766,0.742920,-18.297710,-6.656488,-5.938931
0.453369,0.510742,0.761719,-12.961832,-4.832061,-7.374046
0.458008,0.504395,0.750977,-9.702291,-2.557252,-8.083969
0.452881,0.534180,0.755859,-3.648855,0.801527,-9.007633
0.441406,0.556641,0.720459,-0.404580,1.083969,-10.648855
0.432861,0.544189,0.711182,-1.213740,0.198473,-10.488549
0.435303,0.528564,0.689453,-3.000000,1.251908,-10.954199
0.435059,0.516846,0.666748,-3.793893,2.244275,-10.106871
0.425049,0.485840,0.644531,-3.534351,3.664122,-7.969466
0.428467,0.487793,0.620605,-1.839695,4.267176,-6.076336
0.436768,0.487061,0.616699,3.786260,2.916031,-8.183207
0.457275,0.529053,0.624512,7.526718,1.587786,-9.816793
0.470947,0.551025,0.615723,8.358779,2.534351,-11.732824
0.459961,0.523437,0.621094,7.572519,4.687023,-11.076336
0.440430,0.499023,0.607178,6.648855,8.969465,-10.870229
0.417969,0.442627,0.589600,8.641221,10.503817,-7.122138
0.408691,0.388428,0.557373,12.877863,8.000000,-5.091603
0.419922,0.348389,0.524658,20.801527,5.404580,-3.885496
0.426514,0.296631,0.423584,27.725191,2.961832,-0.778626
0.402100,0.237061,0.290527,29.473282,2.480916,7.229008
0.314453,0.162354,0.194336,32.335876,5.122138,17.664122
0.181396,0.103760,0.114990,40.122139,-0.030534,28.137405
0.047119,0.061035,0.143311,47.900764,-13.511451,38.343510
-0.036377,0.075195,0.042969,45.732826,-35.473282,50.259541
-0.110352,0.035400,0.075439,40.534351,-57.022900,68.335876
-0.140381,0.205322,0.150879,36.595421,-65.480919,96.412216
-0.112793,0.565186,0.458008,18.541985,-85.450378,110.267174
0.078857,0.879395,0.868652,17.908398,-122.282440,116.877861
0.486328,1.005859,1.234131,13.274809,-150.709930,117.022903
0.867432,0.988281,1.683350,20.297710,-133.343506,112.641220
1.160645,0.998047,1.930664,36.045803,-87.068703,126.900764
1.515137,1.100830,1.692383,20.717558,-40.061069,128.343506
1.521484,0.760254,1.405762,14.015267,-25.427481,72.068703
1.287354,0.407959,1.144775,10.748092,-22.106871,47.038166
1.181396,0.481201,0.926025,0.000000,-19.038168,42.274811
1.202148,0.759766,0.858154,-3.526718,-21.083969,22.000000
1.201660,0.833008,0.684570,-15.358779,-23.473282,1.984733
1.165283,0.680664,0.500244,-29.274809,-9.297709,-2.099237
1.082031,0.444336,0.344727,-27.526718,1.465649,-2.961832
1.051758,0.446533,0.273926,0.488550,1.694656,-16.000000
0.966064,0.556396,0.125977,7.007634,7.312977,-6.458015
0.927979,0.775635,0.081055,-16.625954,20.091602,1.900763
0.854492,0.836426,0.112549,-22.068703,12.251908,-13.076336
0.729980,0.717041,0.200439,-13.366412,-2.305344,-30.496183
0.643555,0.580078,0.312256,-0.496183,-10.106871,-36.458015
0.660156,0.544922,0.364258,7.229008,-8.977099,-28.908398
0.672607,0.493164,0.383057,5.916030,-1.221374,-27.458015
0.629883,0.444336,0.372314,4.908397,8.000000,-23.015266
0.572754,0.475586,0.419434,1.312977,9.694656,-22.206106
0.552734,0.510742,0.449219,-3.053435,0.664122,-23.641222
0.579102,0.519043,0.534180,-6.778626,-6.038168,-23.190840
0.655029,0.528809,0.610107,-10.396947,-6.381680,-24.198473
0.715576,0.538086,0.745361,-12.488549,1.320611,-23.465649
0.735107,0.464600,0.733154,-2.992366,11.007633,-27.183207
0.703857,0.414307,0.789551,16.190840,21.549618,-30.900763
0.727539,0.485107,0.774902,31.816793,23.045801,-32.152672
0.764404,0.561279,0.795898,37.404579,24.320610,-39.404579
0.788086,0.584229,0.836182,41.541985,28.305344,-45.045803
0.826904,0.615967,0.864502,33.282444,38.648853,-47.725189
0.808838,0.682861,0.852295,22.061069,49.847328,-52.908398
0.758789,0.697510,0.817139,12.374045,54.160305,-58.175571
0.720215,0.675293,0.778320,7.656488,57.374046,-61.931297
0.668457,0.653564,0.733887,7.099236,58.786259,-67.473282
0.621094,0.629639,0.704102,7.954198,59.213741,-69.916031
0.567627,0.612549,0.667969,8.267176,59.564884,-70.610687
0.532959,0.607666,0.630859,5.954198,58.427483,-70.694656
0.504883,0.659668,0.613281,-4.450382,56.679390,-68.717560
0.480469,0.706299,0.648682,-16.213741,52.404579,-67.160309
0.454346,0.677246,0.669189,-26.312977,51.374046,-65.862595
0.432373,0.621582,0.684814,-25.412214,49.160305,-65.671753
0.419678,0.575928,0.673584,-21.816793,47.396946,-65.229004
0.400146,0.554687,0.661377,-17.748091,50.045803,-61.977100
0.351563,0.528076,0.627930,-13.557252,51.000000,-57.114502
0.308350,0.492187,0.634766,-9.770992,50.038166,-49.740459
0.297852,0.481201,0.616455,-7.633588,45.603054,-44.885498
0.299561,0.473145,0.591553,-1.427481,42.610687,-42.129772
0.290039,0.473633,0.534180,2.160305,41.274811,-38.206108
0.265381,0.432861,0.482666,7.106870,37.977100,-31.137405
0.245117,0.388184,0.464844,14.877863,33.709923,-23.519083
0.247070,0.429687,0.483398,22.145039,28.824427,-18.473282
0.262207,0.547852,0.466064,15.488549,23.748091,-17.198473
0.244385,0.610352,0.447510,2.709924,21.305344,-13.328244
0.216553,0.529541,0.454102,-8.778625,16.305344,-4.824428
0.224609,0.460449,0.474365,-9.862596,11.045801,3.603053
0.254639,0.439453,0.506592,-4.404580,9.381680,7.045802
0.266846,0.441895,0.489990,1.389313,9.633588,10.977099
0.260986,0.479980,0.491211,5.458015,11.045801,15.442748
0.249756,0.523437,0.457764,6.824428,10.526717,18.496183
0.249512,0.499023,0.456543,8.770992,5.045802,21.274809
0.278076,0.508057,0.475830,12.496183,0.000000,22.603054
0.320557,0.546631,0.478027,12.862596,-2.091603,22.152672
0.343262,0.575928,0.460693,10.725191,-1.122137,21.259542
0.342041,0.568359,0.441406,7.534351,-1.541985,20.786259
0.334473,0.547607,0.427734,6.992366,-5.511450,20.335878
0.347412,0.547119,0.425781,8.068703,-9.893129,20.656488
0.380859,0.552490,0.443604,8.259542,-12.572519,21.832062
0.397949,0.523193,0.456543,6.938931,-11.358779,24.412214
0.421631,0.416016,0.419678,4.122138,-9.007633,27.022902
0.411133,0.188965,0.298340,3.503817,-7.335878,35.129772
0.412598,0.030029,0.166260,7.198473,-6.496183,49.625954
0.390625,0.011719,-0.162842,3.351145,-7.503817,59.167938
0.270508,0.040771,-0.179932,-3.274809,-12.610687,76.213737
0.260986,0.175537,-0.054932,-4.984733,-40.839695,97.870232
0.407715,0.364746,0.378418,1.938931,-52.305344,103.076332
0.573242,0.555664,0.318115,24.870230,-51.862595,83.335876
0.517578,0.632324,0.136963,53.251907,-43.687023,66.244278
0.338135,0.925781,0.237549,37.183205,-31.152672,72.305344
0.139160,1.156738,0.486328,18.786259,-45.442749,70.335876
0.165771,1.217529,0.730225,-8.427481,-79.244278,79.725189
0.392090,1.077393,1.205566,-41.664124,-94.755722,79.419846
0.687988,0.948242,1.544434,-60.801525,-53.992367,91.801529
0.748047,0.828613,1.732422,-50.908398,-34.618320,58.335876
0.711426,0.529053,1.673828,-16.717558,-49.572517,49.671757
0.813477,0.398926,1.569824,7.305344,-43.816795,53.694656
0.885498,0.487061,1.488037,10.030535,-30.854961,36.190838
0.944092,0.613037,1.349365,10.625955,-25.992367,24.137405
0.982178,0.693604,1.117676,5.213740,-23.908398,15.190840
0.964844,0.670166,0.803955,3.816794,-24.083969,9.282443
0.898193,0.660645,0.668701,-0.198473,-20.694656,10.381680
0.872314,0.862061,0.594727,6.358778,-15.343512,10.786260
0.845459,0.948975,0.489014,-0.435115,-19.541985,13.061069
0.877441,0.943115,0.492187,-8.778625,-29.274809,8.442748
0.901611,0.817383,0.422607,-13.000000,-23.526718,-3.725191
0.916992,0.681641,0.380371,-21.198473,-23.824427,-8.824428
0.907959,0.583984,0.366455,-17.229008,-19.442749,-16.122137
0.867432,0.531250,0.481934,4.358778,-14.725191,-20.778625
0.867187,0.551025,0.539307,9.748092,-10.633588,-23.496183
0.822998,0.529053,0.524902,8.870229,-4.519084,-30.587786
0.734131,0.513184,0.531738,7.503817,-2.343511,-32.625954
0.694336,0.600586,0.538818,9.221375,-5.244275,-33.526718
0.671631,0.641846,0.533936,5.175572,-10.396947,-29.671755
0.654053,0.636963,0.571289,-2.580153,-8.587787,-24.015266
0.628662,0.604980,0.600586,-2.183206,-2.083969,-19.465649
0.593994,0.611328,0.540771,-1.938931,1.190840,-19.366413
0.543945,0.599609,0.488525,-6.435114,1.877863,-14.374045
0.503906,0.587891,0.450684,-17.541985,2.244275,-5.893130
0.463135,0.583252,0.456787,-23.564886,2.778626,0.847328
0.463135,0.602051,0.499023,-25.175573,-0.267176,6.877862
0.495605,0.614014,0.528076,-27.007633,-6.351145,6.992366
0.515625,0.596191,0.551514,-29.786259,-9.030535,6.198473
0.536865,0.570312,0.587646,-30.893129,-6.916030,8.541985
0.548096,0.544922,0.526611,-29.580153,-2.259542,10.267176
0.529297,0.493896,0.472900,-27.931297,0.664122,13.061069
0.524414,0.478027,0.473389,-26.854961,1.351145,17.671755
0.557617,0.511963,0.490967,-28.900763,0.290076,20.396946
0.600342,0.559082,0.484863,-35.442749,-3.320611,18.320610
0.623047,0.572998,0.517090,-36.015266,-2.480916,12.618320
0.632080,0.541016,0.530762,-30.351145,-4.877862,10.824428
0.684082,0.532959,0.538574,-22.465649,-3.809160,11.312977
0.716797,0.483643,0.562012,-13.427481,1.618321,12.320611
0.738525,0.486572,0.573975,-5.916030,8.488549,9.358779
0.734619,0.512451,0.580566,-2.022901,11.328244,3.404580
0.735352,0.512207,0.613770,2.572519,8.900764,-0.328244
0.772217,0.525879,0.659424,2.664122,6.801527,-4.175572
0.791748,0.541016,0.743896,5.992366,10.916031,-10.977099
0.805420,0.528809,0.798096,11.824428,14.274809,-15.045801
0.821533,0.522705,0.825439,18.389313,20.564886,-21.870230
0.803955,0.546875,0.836914,23.061069,26.908398,-28.366413
0.779541,0.598633,0.831299,23.618320,29.816793,-33.587788
0.774658,0.635010,0.829590,20.206106,32.709923,-38.091602
0.749756,0.640381,0.799316,13.786260,36.656490,-40.923664
0.705811,0.621826,0.788330,9.312977,41.030533,-44.977100
0.657227,0.628418,0.792725,4.053435,43.221375,-47.419846
0.614014,0.652344,0.733643,-4.732824,42.870228,-51.435116
0.567627,0.640137,0.688232,-14.931297,41.862595,-53.595421
0.527100,0.591797,0.650391,-22.503817,40.282444,-52.305344
0.495117,0.562256,0.639648,-26.969465,37.877861,-50.137405
0.480469,0.604492,0.610596,-32.320610,37.000000,-49.458015
0.457764,0.613770,0.584473,-40.625954,33.618320,-47.343510
0.433350,0.589844,0.634766,-46.076336,31.473282,-43.015266
0.429199,0.553223,0.652588,-45.778625,30.534351,-39.748093
0.428711,0.518311,0.666748,-42.748093,29.175573,-37.916031
0.422852,0.497314,0.687012,-35.435116,31.213741,-35.473282
0.419922,0.469238,0.692383,-27.824427,34.061069,-30.992367
0.411621,0.462891,0.676514,-21.213741,39.015266,-26.946566
0.381348,0.457764,0.666992,-14.267176,43.526718,-23.870230
0.335449,0.436279,0.631348,-11.206107,44.854961,-19.114504
0.297363,0.379883,0.621338,-7.534351,45.106869,-14.877863
0.263428,0.337402,0.628418,1.007634,43.328243,-10.396947
0.265137,0.389893,0.607666,8.877863,41.015266,-7.839694
0.256836,0.433838,0.597656,13.404580,37.389313,-6.778626
0.239502,0.471924,0.566895,13.290076,34.809162,-4.656488
0.216553,0.462402,0.555908,9.251908,34.030533,-0.954198
0.195068,0.436279,0.561035,7.206107,32.671757,6.916030
0.207520,0.426025,0.560059,11.404580,29.076336,12.374045
0.225830,0.387207,0.556641,14.725191,25.763359,16.687023
0.254395,0.403320,0.562012,18.351145,24.595419,20.076336
0.284424,0.467285,0.600342,23.664122,22.366413,20.763359
0.305664,0.502930,0.545898,27.885496,20.000000,19.358778
0.307617,0.517822,0.530029,31.603054,13.251908,19.129770
0.327393,0.555420,0.567627,34.717556,5.229008,18.000000
0.364746,0.669434,0.560303,34.068703,-0.091603,12.381680
0.369385,0.717285,0.609863,24.900763,0.526718,10.312977
0.375977,0.696289,0.627930,16.282442,-2.877863,10.320611
0.412354,0.665527,0.659180,14.007633,-1.122137,10.977099
0.444580,0.675293,0.689453,17.106871,1.450382,7.366412
0.445312,0.630615,0.676270,20.961832,4.259542,5.587786
0.437988,0.625000,0.638428,25.763359,6.480916,4.496183
0.430664,0.699951,0.620850,26.717558,8.648855,3.129771
0.397217,0.707764,0.612061,20.908398,4.526718,2.374046
0.393799,0.617920,0.666504,16.610687,1.664122,4.664122
0.430908,0.552490,0.694580,20.664122,5.160306,1.992366
0.451904,0.528564,0.689941,29.442749,10.389313,-4.312977
0.441162,0.530273,0.657227,34.671757,15.068703,-8.832061
0.405273,0.518311,0.610840,30.885496,17.671755,-8.778625
0.380615,0.509521,0.620605,21.740458,13.862596,-6.625954
0.390869,0.505615,0.637695,11.954199,7.099236,-7.847328
0.425537,0.478271,0.699951,9.702291,2.809160,-11.007633
0.467773,0.397705,0.748047,16.786259,0.938931,-11.885496
0.529053,0.347900,0.750732,31.267176,4.404580,-13.198473
0.576904,0.448242,0.658203,50.038166,10.320611,-24.114504
0.545654,0.550781,0.560303,46.931297,11.526717,-28.412214
0.484131,0.718994,0.493652,30.961832,9.809160,-27.190840
0.425781,0.896729,0.485107,1.389313,1.977099,-25.458015
0.416504,0.905762,0.520264,-34.679390,-14.931297,-23.282442
0.458496,0.790039,0.625977,-59.977100,-25.854961,-26.297710
0.503174,0.640625,0.715820,-67.702293,-24.755726,-28.412214
0.514160,0.521484,0.761963,-62.381680,-16.801527,-30.534351
0.497314,0.525635,0.734375,-51.732826,-12.732824,-36.091602
0.454102,0.656738,0.685547,-44.564884,-13.198473,-44.076336
0.396973,0.715820,0.587891,-43.534351,-15.335877,-45.022900
0.340576,0.604736,0.484619,-50.488548,-19.022902,-38.839695
0.321289,0.495117,0.469482,-49.526718,-22.908398,-33.061069
0.339355,0.432129,0.496338,-46.167938,-28.732824,-29.221375
0.360107,0.434814,0.512695,-43.190838,-31.374046,-27.717558
0.351318,0.427002,0.550293,-41.160305,-28.618320,-22.580153
0.316895,0.328125,0.552002,-30.770992,-24.473282,-14.954199
0.289063,0.243896,0.554687,-7.938931,-18.793894,-4.816794
0.262695,0.225586,0.491211,15.610687,-14.824428,5.152672
0.236084,0.252441,0.310791,29.114504,-12.854961,19.488550
0.202148,0.364258,0.143311,37.885498,-9.213740,32.969467
0.112793,0.521240,-0.055908,42.832062,-14.809160,45.297710
0.011230,0.528564,-0.114258,38.015266,-34.305344,59.786259
-0.027100,0.561279,-0.115479,23.198473,-60.412212,72.076332
-0.004639,0.636230,0.006348,-2.793893,-92.259544,79.190842
0.082031,0.459961,0.309814,-44.847328,-120.160309,98.610687
0.328369,0.394287,0.791748,-40.641220,-117.717560,118.099236
0.535645,0.693848,0.858643,-13.083969,-98.770996,101.045799
0.480713,0.806885,0.910645,-6.412214,-79.992363,98.450378
0.459473,0.931152,1.164063,-7.984733,-72.541985,110.610687
0.615234,1.021484,1.421387,-16.824427,-72.931297,106.587784
0.754639,0.854980,1.487061,-41.618320,-71.969467,117.725189
0.938232,0.631592,1.477051,-51.106869,-70.091606,119.167938
0.984131,0.352295,1.343506,-26.908398,-70.091606,93.206108
1.016113,0.297607,1.255859,-1.198473,-71.152672,78.854965
1.039551,0.323486,1.208740,5.801527,-56.458015,86.740456
1.061279,0.505615,1.066406,11.954199,-39.633587,87.770996
1.028076,0.656250,0.939697,20.893129,-41.587788,83.213737
1.016602,0.737793,0.716797,11.633588,-41.442749,85.778625
1.001953,0.786621,0.592285,5.160306,-37.679390,89.580154
1.027832,0.855225,0.546143,-8.419847,-28.664122,89.122139
1.030029,0.834473,0.423584,-21.106871,-25.595419,82.137405
1.040283,0.767334,0.422852,-19.954199,-24.480917,75.351143
1.076904,0.673096,0.439453,-10.458015,-17.625954,64.969467
1.059570,0.560059,0.457275,-5.282443,-7.000000,41.893131
0.985596,0.415283,0.509033,4.106870,4.282443,23.419847
0.929932,0.392578,0.530762,14.396947,16.938931,1.000000
0.849854,0.268066,0.377197,7.732824,10.847328,-13.564885
0.865234,0.076172,0.303223,-12.732824,-6.213740,-16.473282
0.897217,-0.033936,0.412842,-13.770992,-3.335878,-22.458015
0.877197,0.045898,0.505859,12.687023,8.129771,-32.000000
0.827393,0.284912,0.517578,39.076336,13.664123,-36.862595
0.786133,0.497314,0.539307,51.190838,15.778625,-38.618320
0.733643,0.605225,0.561523,45.847328,21.412214,-36.725189
0.678955,0.633301,0.598877,37.106869,24.427481,-34.526718
0.645508,0.595459,0.592773,21.236641,23.633587,-34.702290
0.630615,0.481934,0.551514,5.030534,21.641222,-36.015266
0.609131,0.306396,0.527344,-12.259542,17.763359,-33.473282
0.602295,0.232666,0.557373,-17.900763,16.412214,-29.977098
0.616211,0.286133,0.598145,-14.045801,17.946566,-29.053434
0.641846,0.390869,0.614990,-4.091603,16.389313,-27.893129
0.678711,0.472900,0.583008,2.404580,19.503817,-28.389313
0.727783,0.583984,0.585937,4.145038,23.297710,-30.908398
0.753906,0.673096,0.611572,-0.137405,27.076336,-35.152672
0.749023,0.696045,0.676514,-1.801527,27.160305,-46.167938
0.763184,0.631592,0.734375,-4.595420,22.702290,-54.389313
0.793701,0.530518,0.833984,-7.183206,23.465649,-61.076336
0.809570,0.476074,0.855713,-3.580153,30.870230,-66.923668
0.792969,0.453613,0.832520,-2.412214,38.992367,-69.244278
0.759277,0.527344,0.778809,-5.343512,49.221375,-70.259544
0.685791,0.577148,0.733643,-12.954199,51.702290,-67.404579
0.624268,0.580566,0.712402,-21.358778,48.809162,-66.335876
0.598145,0.580322,0.736572,-20.595419,48.541985,-66.526718
0.565918,0.538330,0.722412,-18.198473,49.541985,-66.877861
0.531738,0.477051,0.708496,-13.931297,51.465649,-64.824425
0.497803,0.459717,0.718262,-4.007634,52.297710,-61.847328
0.492676,0.530273,0.657715,-5.541985,54.160305,-59.664124
0.454346,0.555908,0.663086,-13.664123,56.587788,-58.068703
0.405273,0.566895,0.680176,-21.503817,53.862595,-54.083969
0.385986,0.574219,0.693115,-29.305344,50.763359,-49.374046
0.367188,0.525391,0.703613,-35.900764,48.450382,-45.954197
0.378906,0.433838,0.673828,-32.083969,44.114502,-43.129772
0.381348,0.354004,0.682861,-19.129770,45.641220,-39.328243
0.383301,0.351807,0.668701,-2.076336,47.160305,-34.465649
0.377197,0.398438,0.647461,12.122137,48.519085,-30.694656
0.353516,0.468506,0.598877,20.824427,48.893131,-27.763359
0.323730,0.489990,0.549805,22.305344,47.633587,-23.312977
0.298340,0.484863,0.518799,23.564886,44.755726,-19.320610
0.290039,0.497070,0.475586,22.015266,37.557251,-16.625954
0.295410,0.463379,0.464355,19.374046,29.679390,-13.625955
0.308838,0.403320,0.476318,17.030535,25.221375,-9.870229
0.323730,0.401611,0.479004,19.114504,22.198473,-8.488549
0.322998,0.454590,0.479980,19.839695,18.106871,-6.259542
0.327881,0.530762,0.528076,14.877863,14.389313,-4.282443
0.321533,0.551758,0.520996,6.129771,9.160305,-1.351145
0.333252,0.489990,0.583008,3.603053,7.564886,2.740458
0.364746,0.438477,0.591309,9.572519,7.312977,5.458015
0.386230,0.455078,0.583984,16.320610,10.038168,7.038168
0.380859,0.504639,0.605713,19.824427,14.076336,7.648855
0.356201,0.561279,0.577393,21.145039,10.923664,10.160305
0.350586,0.603760,0.581543,19.671755,7.709924,11.190840
0.355957,0.604248,0.601807,14.664123,2.824427,11.114504
0.378174,0.591309,0.613281,10.152672,-2.564885,10.061069
0.400635,0.624756,0.627197,4.374046,-5.496183,6.396946
0.405029,0.655518,0.603760,-1.923664,-7.442748,1.679389
0.405762,0.629639,0.649170,-7.297710,-10.213740,2.183206
0.422119,0.580566,0.690918,-8.061069,-11.305344,1.305344
0.423828,0.540527,0.747803,-3.740458,-7.725191,-0.908397
0.421387,0.557373,0.761475,8.007633,-5.137404,-3.549618
0.413086,0.580566,0.752686,20.687023,-2.770992,-5.923664
0.400879,0.595703,0.701416,24.480917,-2.740458,-4.572519
0.394531,0.618896,0.664795,18.664122,-1.114504,-2.656489
0.390625,0.631348,0.648682,11.427481,-2.320611,-3.633588
0.380615,0.582520,0.633545,2.549618,-6.175572,-3.198473
0.396729,0.499023,0.672852,-1.587786,-7.167939,-1.687023
0.419922,0.446289,0.685059,2.832061,-3.404580,-3.038168
0.417480,0.466309,0.646729,13.396947,0.007634,-6.351145
0.399414,0.551758,0.616943,17.274809,1.885496,-6.259542
0.380859,0.621582,0.594482,14.480916,3.137405,-4.190840
0.368896,0.633789,0.591064,9.755725,1.068702,-3.114504
0.362793,0.645264,0.578857,6.419847,-0.221374,-4.083970
0.363770,0.678223,0.591797,3.045802,-0.709924,-4.091603
0.354004,0.718262,0.601562,-5.595420,-7.351145,-4.419847
0.349609,0.703857,0.673828,-16.312977,-11.343512,-3.091603
0.376221,0.621094,0.719482,-18.702290,-10.992367,-2.374046
0.400879,0.551514,0.718994,-11.038168,-6.335878,-4.404580
0.407715,0.549805,0.702393,0.412214,-5.122138,-4.709924
0.406738,0.566650,0.699219,9.770992,-2.038168,-2.435115
0.408203,0.608887,0.698242,11.648855,0.595420,-1.030534
0.400879,0.664062,0.692627,11.801527,2.015267,0.366412
0.404053,0.695801,0.654053,6.725191,3.374046,0.442748
0.401367,0.703369,0.613281,-1.603053,5.381680,-2.068702
0.379150,0.678955,0.582275,-11.786260,3.931298,-2.923664
0.361084,0.591064,0.577393,-21.648855,-0.954198,-2.366412
0.380371,0.484619,0.578857,-33.305344,-2.801527,-1.183206
0.383789,0.382813,0.571777,-43.893131,-1.732824,1.099237
0.371826,0.260498,0.528076,-48.030533,0.732824,6.763359
0.349854,0.182129,0.503418,-46.152672,2.496183,14.885496
0.330566,0.190430,0.433350,-41.091602,-0.641221,22.557251
0.315186,0.195312,0.413574,-29.977098,-4.465649,30.198473
0.324951,0.273438,0.435791,-16.488550,-8.931297,36.297710
0.357178,0.458984,0.418701,-2.213740,-14.045801,37.167938
0.360596,0.594971,0.450195,-0.618321,-18.198473,37.427483
0.370605,0.770996,0.479980,3.045802,-24.053434,30.290077
0.364990,0.674316,0.337402,-5.160306,-42.458015,30.122137
0.378174,0.518311,0.334961,-20.969465,-42.679390,35.961834
0.331787,0.446533,0.379639,-23.854961,-41.885498,39.412212
0.308105,0.547119,0.724365,5.480916,-45.038166,43.007633
0.348389,0.845947,0.772705,13.091603,-51.290077,39.412212
0.335449,0.973877,0.754639,-13.992367,-54.809162,31.832062
0.330566,0.744385,0.805664,-53.687023,-65.335876,43.114502
0.425293,0.421875,0.890137,-68.167938,-59.496181,52.305344
0.479004,0.301025,0.905518,-48.267174,-37.877861,41.732826
0.375244,0.387695,0.760986,-20.793894,-23.763359,29.442749
0.250732,0.456787,0.678223,-22.641222,-38.603054,47.732826
0.282715,0.531494,0.851074,-33.725189,-48.030533,69.259544
0.445068,0.707764,0.797852,-51.175571,-59.000000,73.396950
0.533447,0.661377,0.920166,-57.969467,-74.969467,73.992363
0.674561,0.650635,1.010498,-59.541985,-74.152672,84.778625
0.798584,0.528320,1.067139,-58.709923,-75.213737,83.473282
0.900146,0.384277,1.103027,-47.595421,-74.488548,74.389313
0.964355,0.300537,1.101807,-29.236641,-68.572517,69.427483
0.987549,0.462158,1.142334,-6.190840,-58.854961,65.244278
1.019531,0.650391,0.990967,8.114504,-66.435112,64.656487
1.065186,0.725098,0.902832,8.091603,-61.534351,63.992367
1.037842,0.614746,0.727051,6.893130,-69.137405,62.770992
1.048340,0.559326,0.631104,9.984733,-64.175575,54.610687
1.014160,0.460693,0.617920,8.335877,-68.030533,51.679390
1.026611,0.427979,0.637939,15.625955,-61.916031,51.038166
1.017090,0.430176,0.631348,23.480917,-52.610687,40.549618
0.990234,0.469238,0.581299,24.129770,-39.480915,38.465649
0.932861,0.498779,0.538818,23.343512,-27.038168,28.190840
0.844971,0.451172,0.479004,19.068703,-17.625954,22.816793
0.814697,0.430664,0.461914,13.137404,-7.610687,12.305344
0.768799,0.317627,0.450928,8.946565,-3.374046,5.015267
0.755859,0.217529,0.453125,8.801527,-0.435115,-5.679389
0.748047,0.153076,0.467285,12.893129,1.992366,-16.206106
0.760986,0.139893,0.481689,19.160305,4.847328,-22.221375
0.777100,0.149414,0.412598,21.755726,10.274809,-26.404581
0.728027,0.214111,0.433350,17.488550,21.030535,-27.068703
0.667480,0.296631,0.455566,10.603053,23.702290,-23.694656
0.653809,0.323242,0.461670,3.900763,17.473282,-22.900763
0.656494,0.331299,0.501953,0.564885,14.755725,-22.305344
0.652344,0.433838,0.555420,0.885496,17.213741,-18.335878
0.631104,0.545166,0.535889,-2.099237,18.282442,-15.541985
0.614258,0.543701,0.491699,-9.175572,15.251908,-10.778625
0.599609,0.433838,0.485107,-13.015267,10.015267,-7.343512
0.590576,0.391113,0.503418,-10.816793,7.541985,-2.839695
0.601318,0.444336,0.555420,-6.992366,5.618320,2.396947
0.609863,0.473145,0.626953,-5.351145,1.732824,7.954198
0.640137,0.438965,0.683105,-9.633588,-4.114504,11.679389
0.683838,0.335205,0.757568,-6.770992,-7.748092,15.503817
0.749268,0.319824,0.781494,3.595420,-10.748092,12.885496
0.818848,0.364258,0.743164,12.160305,-7.198473,8.938931
0.825195,0.360840,0.675781,14.404580,-2.854962,2.152672
0.820557,0.380127,0.615723,15.221375,-4.648855,-2.618321
0.818359,0.368164,0.629883,11.251908,-3.870229,-2.610687
0.852539,0.410889,0.642822,11.419847,-2.778626,-7.091603
0.866699,0.401367,0.627441,13.083969,-2.893130,-13.137404
0.877441,0.371094,0.625977,13.221375,-4.526718,-20.038168
0.878418,0.346924,0.644775,15.190840,-4.274809,-25.893129
0.899170,0.355957,0.639893,20.778625,-1.778626,-25.137405
0.921387,0.410645,0.670654,27.465649,0.816794,-29.519083
0.938477,0.484131,0.643311,28.404581,2.015267,-32.557251
0.948730,0.569092,0.663574,27.854961,6.068702,-39.854961
0.922607,0.605957,0.656494,26.206106,9.862596,-45.664124
0.913330,0.651123,0.641113,24.549618,13.190840,-56.709923
0.869629,0.597168,0.635742,16.053434,18.954199,-59.519085
0.841309,0.580078,0.609863,10.022901,27.229008,-62.778625
0.804443,0.524170,0.608398,9.572519,32.106869,-66.488548
0.741699,0.475586,0.576416,6.190840,37.465649,-72.473282
0.709961,0.496826,0.594727,2.992366,42.213741,-72.694656
0.652344,0.536621,0.609863,-1.038168,46.129772,-76.389313
0.600586,0.509033,0.604248,-8.854961,45.000000,-77.083969
0.580322,0.518799,0.626953,-11.824428,45.732826,-77.106873
0.534668,0.455811,0.574463,-17.412214,43.480915,-75.740456
0.510986,0.380859,0.590332,-21.152672,43.419846,-72.175575
0.492432,0.361816,0.579102,-21.969465,47.778625,-69.969467
0.434082,0.377197,0.506592,-24.687023,49.572517,-64.503815
0.389648,0.394531,0.484131,-31.748091,45.946564,-56.641220
0.380615,0.419189,0.479736,-45.412212,38.114502,-52.007633
0.414551,0.516113,0.508789,-62.198475,34.587788,-49.015266
0.413574,0.551270,0.541504,-79.259544,30.961832,-44.732826
0.410889,0.550293,0.540039,-83.656487,26.290077,-43.541985
0.419189,0.537842,0.643799,-81.236641,22.801527,-42.862595
0.466553,0.510254,0.688232,-77.267174,17.557251,-41.404579
0.514404,0.520264,0.753906,-75.412216,25.221375,-41.824429
0.474854,0.562012,0.721924,-79.748093,37.290077,-42.290077
0.403076,0.594727,0.683838,-87.618324,38.259541,-40.374046
0.386963,0.600342,0.680176,-101.908394,30.725191,-36.580154
0.424072,0.509521,0.772461,-111.732826,23.564886,-33.625954
0.477051,0.389893,0.772217,-105.282440,21.770992,-34.396946
0.483643,0.273926,0.751221,-91.312981,28.267176,-33.877861
0.460937,0.214355,0.696045,-77.618324,32.099236,-28.816793
0.432129,0.138184,0.683350,-66.763359,30.618320,-22.893129
0.411621,0.063965,0.709717,-51.091602,26.595419,-16.816793
0.443115,0.151855,0.732422,-32.503819,26.687023,-12.343512
0.485107,0.308838,0.799805,-26.152672,29.183207,-10.221375
0.466064,0.362061,0.734375,-45.618320,26.083969,-6.740458
0.395508,0.244873,0.691406,-62.480915,18.679390,-5.236641
0.346680,0.114258,0.583740,-56.366413,9.694656,-7.251908
0.323486,0.071533,0.589600,-40.175571,4.511450,-1.442748
0.373535,0.212646,0.580811,-27.183207,1.030534,1.557252
0.374268,0.303223,0.676514,-29.236641,-0.015267,2.389313
0.390625,0.420898,0.643799,-38.625954,-4.908397,6.389313
0.373047,0.477051,0.617432,-57.083969,-8.488549,4.442748
0.315186,0.435303,0.613770,-68.000000,-17.244274,3.885496
0.282715,0.363281,0.663574,-60.007633,-26.122137,5.244275
0.301514,0.368164,0.642090,-38.702290,-29.206106,7.312977
0.305664,0.381104,0.572510,-21.015266,-29.083969,8.694656
0.252197,0.304199,0.626221,-6.488550,-28.244274,13.007633
0.244141,0.250977,0.755371,14.465649,-33.572517,19.816793
0.341309,0.340332,0.754395,36.206108,-36.488548,23.007633
0.411621,0.441162,0.687500,43.396946,-29.267176,24.977098
0.384277,0.443115,0.609863,44.061069,-24.114504,26.702290
0.320313,0.365479,0.572754,49.114502,-28.129770,33.198475
0.323242,0.344238,0.603516,58.748093,-33.480915,41.198475
0.390869,0.460449,0.604736,63.648853,-36.000000,42.633587
0.448730,0.583740,0.666504,63.022900,-38.328243,41.511452
0.498535,0.663330,0.730957,58.175571,-40.671757,39.312977
0.510986,0.681396,0.754883,50.908398,-40.496181,33.969467
0.538818,0.647461,0.790039,45.671757,-42.885498,27.526718
0.566406,0.608154,0.838867,26.557251,-38.908398,22.809160
0.616943,0.552979,0.886963,19.183207,-36.000000,25.030535
0.696045,0.485840,0.813721,9.770992,-34.854961,23.732824
0.682617,0.361816,0.828613,9.549619,-29.770992,13.900764
0.636230,0.327637,0.746338,10.099236,-27.526718,9.625955
0.597656,0.383789,0.740479,10.183207,-24.106871,11.587787
0.552734,0.452637,0.724854,-1.045802,-24.244274,10.908397
0.482422,0.444580,0.683350,-24.916031,-27.671755,9.450381
0.444336,0.313721,0.746826,-44.152672,-38.251907,14.015267
0.496826,0.205566,0.807129,-43.648853,-44.664124,20.770992
0.552734,0.182617,0.831299,-35.832062,-40.167938,19.061069
0.551270,0.176270,0.833984,-31.580153,-35.885498,17.572519
0.546875,0.209229,0.838623,-27.114504,-31.717558,19.816793
0.541748,0.246582,0.822510,-24.511450,-30.656488,19.931297
0.558350,0.240234,0.846680,-27.557251,-32.587788,21.870230
0.601074,0.257568,0.946289,-22.297710,-32.900764,22.694656
0.693115,0.281982,0.891602,-22.030535,-40.412212,19.839695
0.776367,0.287109,0.917480,-19.000000,-34.068703,19.045801
0.803955,0.323975,0.887695,-13.129771,-24.885496,15.717557
0.790527,0.351807,0.849365,-10.847328,-20.603054,13.435115
0.791992,0.329834,0.782959,-8.770992,-20.984734,12.251908
0.788086,0.335449,0.770752,-7.106870,-20.213741,10.519084
0.787842,0.353271,0.769531,-2.549618,-19.854961,11.572519
0.836670,0.402344,0.746338,0.656489,-21.931297,10.450381
0.859131,0.412598,0.714600,0.488550,-19.000000,6.381680
0.846191,0.423584,0.706787,-1.038168,-13.045801,2.312977
0.817383,0.456543,0.684326,-0.977099,-13.564885,0.389313
0.803467,0.438477,0.645752,-1.618321,-12.656488,-0.816794
0.784424,0.394287,0.667725,-1.977099,-12.129771,-2.595420
0.769531,0.343994,0.638428,-2.236641,-9.450381,-4.206107
0.733887,0.302246,0.650879,-2.473282,-3.687023,-4.229008
0.672119,0.284180,0.662109,-1.450382,0.267176,-3.847328
0.645996,0.304443,0.664062,-0.244275,-3.206107,-3.251908
0.656982,0.297363,0.665039,-1.167939,-5.251908,-2.465649
0.663086,0.279297,0.680664,-1.007634,-3.022901,-2.412214
0.666016,0.293213,0.675781,1.053435,-1.221374,-3.343511
0.658203,0.299561,0.666016,0.061069,1.160305,-3.893130
0.640625,0.295654,0.671875,-0.351145,2.465649,-3.603053
0.636719,0.307617,0.637207,-1.297710,1.160305,-3.122137
0.628418,0.300781,0.630127,-3.526718,2.618321,-2.335878
0.605469,0.305420,0.648682,-4.259542,2.396947,-0.664122
0.615967,0.306396,0.651611,-5.274809,-1.480916,1.893130
0.643311,0.280762,0.657715,-5.770992,-0.770992,2.290076
0.639648,0.299561,0.668945,-4.091603,2.038168,4.091603
0.630371,0.344971,0.657715,-5.190840,-0.702290,5.977099
0.641113,0.351563,0.674561,-6.969466,-3.633588,7.900764
0.668213,0.355225,0.678711,-7.740458,-5.717557,8.709924
0.681396,0.354736,0.689453,-9.290076,-6.328244,9.687023
0.704590,0.347656,0.685791,-10.091603,-8.610687,9.946565
0.718262,0.312744,0.694092,-10.931297,-9.587787,9.694656
0.739990,0.280518,0.682861,-9.213740,-7.633588,9.641221
0.728027,0.276123,0.701904,-5.190840,-4.770992,8.763359
0.707520,0.307617,0.692139,-1.832061,-7.290076,8.419847
0.707031,0.357910,0.694336,-0.305344,-11.366412,8.282443
0.725586,0.349365,0.718018,-4.961832,-16.458015,7.519084
0.754883,0.321045,0.756836,-6.045802,-17.893129,7.679389
0.781250,0.273438,0.782471,-5.328244,-17.488550,4.549618
0.805420,0.278809,0.812012,-1.786260,-14.160305,1.251908
0.832764,0.306641,0.796631,-2.389313,-12.900764,-2.343511
0.875244,0.356934,0.811035,-4.870229,-10.045801,-8.045801
0.900635,0.340332,0.804932,-9.244275,-7.931298,-10.763359
0.927490,0.346680,0.785645,-11.480916,-0.954198,-16.083969
0.934082,0.327393,0.793457,-9.099236,7.045802,-19.145039
0.929687,0.309326,0.794434,-5.427481,14.587787,-24.664122
0.948486,0.309814,0.795898,-1.702290,22.297710,-28.854961
0.948730,0.316650,0.805664,3.496183,30.679390,-34.702290
0.933350,0.332764,0.796143,10.549619,39.877861,-41.183205
0.901367,0.355713,0.814941,20.213741,49.641220,-47.893131
0.862305,0.364502,0.820312,24.267176,57.648853,-48.931297
0.808105,0.348389,0.823242,24.694656,68.290077,-47.549618
0.723633,0.335449,0.772949,31.374046,78.374046,-46.725189
0.629639,0.362061,0.723145,36.564884,81.908394,-46.977100
0.545898,0.390137,0.648682,33.862595,79.106873,-46.366413
0.491943,0.406006,0.610840,23.763359,73.969467,-45.893131
0.450439,0.437500,0.573975,14.045801,68.175575,-45.870228
0.410400,0.425781,0.546143,0.526718,59.977100,-45.190838
0.379395,0.402588,0.572266,-11.381680,51.564884,-42.091602
0.370117,0.365967,0.552979,-21.015266,40.885498,-40.687023
0.369873,0.309082,0.580078,-31.000000,34.839695,-37.435116
0.380127,0.271484,0.605225,-34.000000,30.213741,-34.778625
0.384277,0.237549,0.641357,-30.687023,28.015266,-32.687023
0.387207,0.264648,0.640137,-24.526718,27.221375,-29.732824
0.381836,0.340332,0.629150,-18.992367,25.404581,-27.175573
0.358398,0.387207,0.624268,-15.557252,21.725191,-25.045801
0.328613,0.381836,0.539551,-11.366412,13.000000,-23.801527
0.322754,0.352783,0.549072,-5.335878,3.992366,-20.091602
0.350342,0.315674,0.559082,1.984733,-3.335878,-17.305344
0.371826,0.291748,0.568115,7.526718,-6.351145,-15.312977
0.363281,0.271729,0.564453,10.297709,-8.832061,-12.396947
0.349609,0.244873,0.619629,9.503817,-12.961832,-5.900764
0.369629,0.255615,0.652100,7.076336,-18.954199,0.206107
0.400146,0.260010,0.689697,1.190840,-22.419847,5.458015
0.429687,0.245605,0.718018,-3.473282,-21.519083,10.419847
0.444336,0.246094,0.746582,-1.954198,-17.641222,14.000000
0.445801,0.248047,0.756836,3.320611,-16.748091,18.419847
0.464355,0.263916,0.757568,10.190840,-12.816793,24.160305
0.484375,0.290771,0.768555,15.152672,-7.206107,27.900763
0.494141,0.342041,0.761475,19.603054,-3.000000,29.145039
0.496338,0.405518,0.734619,20.282442,-1.839695,29.389313
0.499023,0.448486,0.731934,16.732824,-1.587786,28.335878
0.504883,0.458984,0.749268,13.885496,-2.809160,27.167938
0.511230,0.418457,0.751953,13.572519,-4.389313,26.908398
0.514893,0.382568,0.729980,15.541985,-4.007634,25.801527
0.497803,0.370361,0.686279,17.396946,-2.786260,25.679390
0.489014,0.386719,0.662842,15.954199,-3.687023,26.832062
0.496094,0.445801,0.644531,15.053435,-6.778626,25.862595
0.514404,0.478760,0.654297,12.076336,-10.969465,24.503817
0.536133,0.442139,0.712646,11.435115,-15.022901,22.687023
0.571533,0.421143,0.779053,14.076336,-16.061069,19.709923
0.597412,0.454590,0.770264,17.534351,-16.236641,15.877863
0.581055,0.461426,0.705322,14.229008,-12.519084,13.679389
0.519531,0.423096,0.651123,12.030535,-13.022901,13.725191
0.467773,0.397461,0.575439,13.534351,-17.519083,15.076336
0.441895,0.396973,0.533936,18.160305,-24.152672,16.282442
0.441406,0.380127,0.595215,26.083969,-32.877861,20.251909
0.485596,0.297363,0.684326,44.137405,-45.763359,26.847328
0.570801,0.210205,0.837402,67.274811,-43.580154,32.595421
0.596191,0.164307,0.771729,91.511452,-30.862595,33.854961
0.555664,0.265625,0.658936,115.900764,-9.961832,34.244274
0.467285,0.422119,0.513428,127.625954,-2.297710,33.450382
0.369385,0.492920,0.435547,115.427483,-4.000000,43.954197
0.344727,0.559814,0.459717,85.564888,-11.000000,52.946564
0.362549,0.536133,0.469482,44.786259,-23.335878,53.442749
0.419922,0.416748,0.516602,2.908397,-38.366413,54.519085
0.491455,0.371826,0.680420,-12.145039,-44.717556,50.251907
0.563477,0.154541,0.794678,-12.549619,-52.053436,57.366413
0.692871,0.075928,0.881104,11.160305,-44.480915,57.877861
0.759277,0.083008,0.859131,36.618320,-38.633587,52.755726
0.775391,0.218750,0.847900,49.137405,-26.923664,49.259541
0.780518,0.353516,0.795898,41.282444,-23.236641,50.038166
0.795410,0.401611,0.756592,27.549618,-21.725191,48.908398
0.832764,0.502441,0.705078,12.083969,-17.480917,46.175571
0.821289,0.527344,0.667480,9.473283,-16.725191,38.145039
0.780273,0.433350,0.634033,-2.290076,-13.961832,35.183205
0.751953,0.380371,0.641846,-7.946565,-10.083969,35.664124
0.733154,0.389893,0.620361,-3.328244,-15.106871,32.961834
0.753174,0.454346,0.622070,-5.167939,-18.221375,35.923664
0.783936,0.477295,0.615234,-7.877862,-21.748091,36.106869
0.803955,0.496582,0.618896,-7.206107,-24.877863,37.526718
0.843994,0.513428,0.578369,-10.557252,-27.244274,33.206108
0.865967,0.475098,0.574219,-9.893129,-27.511450,35.145039
0.897949,0.457764,0.541504,-11.435115,-27.442749,31.717558
0.903564,0.425049,0.552002,-9.427481,-27.641222,28.786259
0.937500,0.411133,0.576172,-7.503817,-26.534351,27.068703
0.942871,0.389160,0.562744,-4.435114,-25.274809,22.335878
0.932373,0.364258,0.586670,-0.343511,-22.183207,18.732824
0.935303,0.417725,0.525879,3.000000,-21.152672,16.091602
0.901123,0.387939,0.523437,-5.328244,-20.015266,12.702291
0.870117,0.355469,0.513672,-2.923664,-19.671755,8.564885
0.846924,0.368408,0.517334,-0.770992,-19.274809,10.809160
0.849854,0.393311,0.515137,-0.297710,-19.877863,9.412213
0.840576,0.341553,0.522949,-1.954198,-17.770992,8.679389
0.815186,0.322021,0.519775,1.473282,-15.526717,8.274809
0.796387,0.338379,0.497314,-0.358779,-14.740458,8.992367
0.790283,0.363037,0.494873,-2.129771,-15.648855,10.183207
0.800537,0.349121,0.506592,-4.389313,-13.656488,10.984733
0.812988,0.324707,0.494873,-4.717557,-13.335877,8.916031
0.822510,0.316406,0.496582,-4.335878,-12.198473,8.122137
0.825928,0.320068,0.488281,-4.236641,-10.564885,7.129771
0.840332,0.349121,0.488037,-3.656489,-9.465649,6.007634
0.843994,0.333496,0.501221,-4.198473,-7.297710,3.374046
0.856201,0.327148,0.510498,-4.938931,-5.083970,2.595420
0.865479,0.300049,0.499268,-6.053435,-2.793893,0.274809
0.871094,0.291504,0.505859,-5.511450,-0.381679,-1.671756
0.879150,0.312500,0.523193,-3.351145,1.587786,-3.435115
0.882568,0.344238,0.538818,-1.671756,5.343512,-6.038168
0.880615,0.367676,0.554443,-3.992366,6.007634,-7.992366
0.895508,0.372803,0.538574,-6.664122,6.374046,-9.221375
0.921631,0.359131,0.560059,-8.160305,9.137404,-12.122137
0.944336,0.341309,0.520508,-6.030534,10.732824,-15.625955
0.947266,0.342773,0.503906,-3.274809,14.717557,-19.854961
0.948486,0.355957,0.465576,-0.343511,15.748092,-21.893129
0.955078,0.366211,0.434082,0.022901,13.083969,-23.000000
0.963135,0.357910,0.439209,1.801527,12.908397,-23.351145
0.951904,0.345947,0.465088,7.557252,14.748092,-23.419847
0.935059,0.362793,0.506836,14.931297,18.213741,-24.580153
0.902344,0.392822,0.544922,20.679390,23.442749,-26.374046
0.864746,0.419678,0.548096,21.480917,25.618320,-28.503817
0.832275,0.450928,0.557373,17.809160,26.923664,-32.832062
0.798584,0.448242,0.591553,12.610687,26.366413,-39.137405
0.782471,0.408447,0.565674,7.526718,21.091602,-42.839695
0.779297,0.359131,0.540527,1.022901,18.648855,-44.870228
0.763672,0.316162,0.504150,-4.465649,19.305344,-44.053436
0.729004,0.309326,0.498047,-7.816794,21.114504,-41.587788
0.697510,0.307861,0.498291,-6.885496,19.236641,-38.068703
0.691650,0.326904,0.505371,-5.564886,16.351145,-34.427483
0.679443,0.341064,0.498291,-2.908397,14.748092,-30.541985
0.638672,0.340332,0.446045,-5.488550,13.900764,-26.442749
0.599609,0.316895,0.461670,-3.030534,8.809160,-22.297710
0.588379,0.337646,0.448730,1.534351,7.687023,-17.908398
0.594482,0.406006,0.473633,5.419847,7.282443,-17.977098
0.595215,0.462158,0.487061,4.427481,6.816794,-19.206106
0.595459,0.495117,0.508301,1.580153,5.625954,-19.160305
0.603760,0.471924,0.530029,-2.580153,4.213740,-20.343512
0.623535,0.417480,0.591064,0.709924,3.786260,-22.198473
0.664795,0.407227,0.605469,8.038168,7.305344,-23.351145
0.687012,0.435547,0.652344,13.748092,14.923664,-24.725191
0.680176,0.465088,0.643799,14.923664,21.129770,-29.267176
0.649658,0.471191,0.601074,13.740458,22.503817,-31.862595
0.632812,0.442139,0.581543,10.396947,21.267176,-33.122139
0.629639,0.408203,0.572754,5.229008,19.229008,-35.587788
0.625732,0.363770,0.587158,3.824427,17.167938,-36.893131
0.644531,0.362793,0.609375,3.030534,16.648855,-36.656490
0.644775,0.371582,0.638184,0.687023,17.633587,-36.297710
0.640869,0.375977,0.661621,-0.305344,17.900763,-35.809162
0.640137,0.351807,0.700439,1.442748,20.206106,-32.083969
0.646729,0.372803,0.689453,3.366412,24.854961,-30.984734
0.622314,0.388916,0.707764,2.908397,29.992367,-31.099237
0.586914,0.391846,0.725098,5.755725,31.748091,-29.496183
0.566650,0.389160,0.763916,10.343512,33.236641,-26.473282
0.561279,0.405762,0.795166,15.091603,36.664124,-23.603054
0.553955,0.441650,0.797119,14.091603,41.709923,-22.099237
0.531738,0.486084,0.792480,11.396947,44.297710,-21.587786
0.505615,0.535889,0.753418,4.106870,46.229008,-18.893129
0.486816,0.539551,0.723877,-6.106870,42.412212,-16.053434
0.497559,0.557373,0.714600,-25.106871,43.648853,-12.671756
0.463379,0.562500,0.663086,-40.954197,41.488548,-8.251908
0.462158,0.536133,0.699707,-52.305344,36.908398,-4.099236
0.464600,0.461670,0.696777,-53.664124,31.992367,-4.091603
0.486572,0.373779,0.724854,-45.763359,29.786259,-3.473282
0.512207,0.338867,0.742432,-32.763359,31.106871,-4.282443
0.534180,0.375244,0.707031,-24.167938,35.832062,-6.167939
0.513184,0.486816,0.669434,-25.717558,41.473282,-7.290076
0.467529,0.573486,0.599365,-38.053436,39.274811,-4.778626
0.433105,0.538818,0.616211,-50.908398,28.687023,-1.450382
0.437744,0.432129,0.636230,-53.160305,16.610687,-2.374046
0.475342,0.327393,0.637451,-45.229008,12.175572,-3.053435
0.492187,0.268311,0.616211,-31.312977,13.946565,-2.374046
0.475586,0.261719,0.588867,-17.190840,16.251909,0.671756
0.438232,0.229004,0.533691,-4.007634,12.603053,5.053435
0.415771,0.122070,0.423096,6.442748,4.442748,13.694656
0.392578,-0.074707,0.247314,18.709923,-0.137405,29.702290
0.372070,-0.239746,0.190430,43.129772,3.618321,51.167938
0.367188,-0.201172,0.227783,90.786263,5.427481,68.198471
0.411865,0.152832,0.313721,137.236649,-0.954198,77.328247
0.427979,0.436035,0.299561,156.534348,-7.190840,83.480919
0.377441,0.445557,0.263672,161.000000,-8.488549,92.603050
0.396240,0.621582,0.310547,150.053436,-10.175572,89.343513
0.524658,1.208252,0.290283,123.687019,-2.312977,74.442749
0.540039,1.591309,0.328125,25.549618,-11.053435,53.236641
0.471680,1.369873,0.571777,-39.877861,-36.389313,50.870228
0.564697,0.867432,0.703857,-72.267174,-50.625954,63.687023
0.697998,0.483643,0.757568,-72.053436,-43.908398,52.618320
0.729736,0.318115,0.779541,-50.977100,-31.335878,27.007633
0.623535,0.330566,0.750488,-26.671755,-24.122137,17.198473
0.565186,0.441406,0.741943,-21.702290,-24.992367,29.572519
0.577881,0.447510,0.703613,-37.534351,-35.916031,36.183205
0.629883,0.360107,0.752686,-56.244274,-38.862595,45.160305
0.692871,0.346680,0.786865,-51.725189,-39.541985,36.251907
0.714600,0.361084,0.768555,-32.671757,-40.488548,35.099236
0.742187,0.390137,0.739014,-28.854961,-31.694656,44.900764
0.745117,0.354736,0.716797,-31.366413,-24.564886,44.328243
0.700928,0.262207,0.714111,-31.175573,-21.427481,40.648853
0.656738,0.247070,0.728027,-29.274809,-21.671755,38.564884
0.697754,0.339844,0.749756,-25.099237,-31.030535,40.893131
0.768799,0.377441,0.764160,-22.580153,-38.045803,44.625954
0.881836,0.416504,0.763916,-17.656488,-43.022900,40.717556
0.945312,0.394531,0.788574,-6.564886,-38.061069,41.900764
1.020020,0.456787,0.694336,-4.534351,-32.053436,37.160305
1.035156,0.471436,0.702881,-0.503817,-28.099237,34.267174
1.030273,0.449951,0.665527,0.045802,-31.557251,32.946564
1.058350,0.494873,0.692139,0.946565,-33.290077,26.213741
1.053955,0.473633,0.607910,0.595420,-35.603054,20.549618
1.043213,0.451416,0.567139,-2.770992,-39.564884,15.473283
1.036621,0.450928,0.452148,-6.694656,-40.870228,8.641221
1.008789,0.392090,0.448486,-10.114504,-43.725189,5.229008
0.976562,0.343262,0.498779,-5.648855,-38.946564,7.732824
0.947021,0.303223,0.517334,-0.801527,-34.511452,14.007633
0.937012,0.341553,0.506592,-1.404580,-20.847328,15.061069
0.885010,0.346436,0.489258,-3.534351,-13.625955,10.625955
0.847900,0.308350,0.497314,-5.320611,-12.083969,7.770992
0.851807,0.270752,0.509766,-3.954198,-10.664123,3.862595
0.886719,0.251953,0.505859,-4.297710,-10.603053,-2.274809
0.918213,0.234131,0.510498,-5.091603,-9.038168,-7.656488
0.942871,0.222656,0.523193,-3.572519,-3.229008,-12.595420
0.939209,0.210937,0.498535,-1.725191,3.961832,-15.221375
0.924316,0.212158,0.494385,0.671756,7.099236,-16.480917
0.918213,0.236328,0.490479,5.625954,9.702291,-18.328245
0.897705,0.280273,0.517090,13.992367,15.763359,-21.618320
0.873291,0.340820,0.513916,22.862595,19.786259,-24.328245
0.863037,0.398193,0.525391,29.458015,24.343512,-26.770992
0.845215,0.435791,0.549805,30.832062,28.763359,-31.877863
0.836182,0.448730,0.566650,28.961832,32.893131,-39.312977
0.835693,0.439941,0.585205,25.045801,36.396946,-49.419846
0.833740,0.366943,0.547119,21.610687,34.687023,-60.496181
0.830322,0.229004,0.498047,19.045801,25.717558,-62.893131
0.839600,0.126709,0.438477,17.908398,22.580153,-59.122139
0.815186,0.118896,0.457520,19.259542,33.610687,-56.290077
0.716064,0.197510,0.464111,29.465649,44.961834,-52.923664
0.642334,0.385010,0.486084,36.396946,45.984734,-49.282444
0.603760,0.591064,0.487305,32.213741,40.427483,-49.137405
0.571777,0.700684,0.451172,17.984734,33.992367,-48.320610
0.532959,0.645752,0.405029,-0.870229,24.740458,-42.519085
0.507080,0.535156,0.383545,-11.091603,19.473282,-34.374046
0.478760,0.458984,0.415283,-10.267176,18.381680,-26.564886
0.462158,0.461670,0.497803,-1.740458,16.854961,-20.679390
0.459717,0.526611,0.545654,3.351145,14.496183,-12.129771
0.464111,0.586182,0.592041,-8.572519,12.297709,-5.221374
0.469238,0.513916,0.561768,-15.015267,6.549618,-0.770992
0.516602,0.412598,0.714844,-10.511451,5.229008,-0.740458
0.582520,0.381348,0.761475,7.114504,5.381680,-3.152672
0.639160,0.408203,0.787109,24.335878,11.412213,-5.870229
0.669189,0.457520,0.759766,29.297710,17.702290,-7.900764
0.661133,0.472412,0.754395,32.229008,17.106871,-11.366412
0.664551,0.464355,0.763184,32.045803,13.152672,-11.763359
0.694336,0.445801,0.817139,32.458015,11.664123,-14.183207
0.702881,0.406738,0.824951,34.870228,13.244275,-18.664122
0.694824,0.366943,0.853271,38.938931,15.496183,-20.274809
0.684082,0.402100,0.875977,43.015266,20.068703,-23.145039
0.656250,0.432129,0.869629,47.015266,23.793894,-24.687023
0.632568,0.453125,0.878418,47.137405,26.862595,-22.625954
0.617432,0.515869,0.845459,37.893131,35.091602,-21.259542
0.613037,0.567383,0.790283,16.175573,46.343510,-23.290077
0.548584,0.628662,0.693604,-13.206107,54.053436,-27.229008
0.491943,0.713379,0.611328,-51.038166,57.335876,-22.160305
0.408691,0.695801,0.581543,-87.572517,49.251907,-17.389313
0.380127,0.606934,0.603760,-122.801529,37.328243,-12.847328
0.428223,0.576660,0.549072,-154.022903,29.832062,-16.213741
0.437256,0.526855,0.474121,-178.511444,25.259542,-22.610687
0.405518,0.402344,0.445801,-198.236649,20.442749,-23.091602
0.392334,0.268799,0.516846,-204.870224,11.358779,-20.877863
0.398682,0.269775,0.530029,-204.488556,4.167939,-22.755726
0.446777,0.364502,0.546631,-207.236649,-4.305344,-27.030535
0.485596,0.341309,0.617432,-216.328247,-12.496183,-29.709923
0.526367,0.219727,0.621582,-215.129776,-14.190840,-31.221375
0.541992,0.065674,0.646484,-199.961838,-13.541985,-27.572519
0.557861,0.007080,0.625732,-175.190842,-7.358778,-20.885496
0.522705,-0.069092,0.511963,-152.786255,-5.786260,-13.419847
0.477783,-0.190186,0.447021,-130.916031,-10.274809,-0.977099
0.468994,-0.261719,0.380371,-104.465652,-14.687023,8.374045
0.465088,-0.254150,0.377197,-68.618324,-18.053434,16.526718
0.475830,-0.114746,0.384521,-23.694656,-20.129770,20.473282
0.497314,0.117188,0.407227,20.618320,-23.877863,21.358778
0.535645,0.345947,0.372803,46.351147,-33.389313,24.572519
0.567383,0.441162,0.478516,44.610687,-40.351147,34.885498
0.595459,0.292969,0.499512,24.213741,-46.076336,47.427483
0.553467,0.046387,0.655762,39.839695,-28.679390,44.099236
0.585449,0.148193,0.777588,81.511452,-27.557251,40.671757
0.662354,0.411133,0.813232,98.519081,-20.091602,28.923664
0.635010,0.542480,0.765869,88.442749,-16.053434,24.076336
0.612793,0.552002,0.739014,52.045803,-21.343512,23.061069
0.597412,0.430664,0.743896,18.473282,-36.717556,13.305344
0.619629,0.281250,0.756104,5.312977,-48.206108,7.473282
0.684570,0.199463,0.812500,2.786260,-47.244274,10.870229
0.735107,0.263184,0.921143,9.519084,-36.862595,11.381680
0.728760,0.386475,0.900635,8.900764,-30.633587,6.045802
0.691650,0.394531,0.872070,-1.961832,-30.183207,5.190840
0.697021,0.291992,0.858154,-10.923664,-33.190838,6.938931
0.724365,0.252686,0.859131,-12.198473,-32.717556,5.267176
0.757080,0.279785,0.851074,-9.786260,-31.572519,3.396947
0.775391,0.326660,0.834717,-11.816793,-28.610687,3.824427
0.784424,0.312256,0.851318,-14.061069,-26.641222,8.137404
0.833008,0.323486,0.829102,-11.305344,-29.450382,6.083970
0.875977,0.347168,0.812744,-10.061069,-31.259542,1.381679
0.914551,0.343750,0.826904,-9.030535,-29.572519,-0.167939
0.957031,0.359619,0.831543,-6.778626,-26.236641,-3.351145
0.977295,0.406006,0.822510,-8.824428,-23.900763,-12.641221
0.982422,0.437012,0.807617,-13.206107,-23.145039,-21.267176
0.965332,0.353760,0.792969,-17.297710,-21.099237,-28.099237
0.972168,0.281006,0.775146,-16.832062,-15.282443,-31.503817
0.982422,0.247559,0.746338,-8.854961,-6.793893,-35.610687
0.962402,0.301025,0.725342,-6.106870,3.412214,-47.358780
0.900879,0.342773,0.723145,-12.106871,7.030534,-54.358780
0.866699,0.292236,0.741455,-27.801527,1.435115,-58.351147
0.886230,0.173096,0.776123,-39.412212,0.320611,-61.748093
0.863037,0.015381,0.673828,-40.312977,4.328244,-62.045803
0.751709,-0.079346,0.532471,-25.839695,12.366412,-56.923664
0.623779,-0.110596,0.446045,-6.534351,20.167938,-47.809162
0.495361,-0.046387,0.391846,9.709924,26.175573,-37.061069
0.386230,0.082275,0.373779,17.221375,22.564886,-30.213741
0.318115,0.169678,0.384521,10.061069,10.282443,-23.488550
0.277344,0.144287,0.416260,-1.274809,-2.541985,-17.694656
0.223877,0.059570,0.466064,-2.038168,-6.450382,-12.541985
0.177734,0.062744,0.495850,7.152672,-4.312977,-7.396946
0.141602,0.098633,0.503662,20.931297,-6.694656,-1.022901
0.149414,0.157959,0.505615,26.763359,-9.770992,4.893130
0.146729,0.128418,0.466553,25.954199,-12.183207,9.702291
0.154297,0.072021,0.455811,25.236641,-14.549619,12.389313
0.186768,0.007568,0.450195,28.274809,-19.893129,13.000000
0.221191,-0.030273,0.417969,28.923664,-15.778625,21.511450
0.242676,-0.009277,0.497559,25.236641,-11.572519,33.282444
0.310303,0.133301,0.576904,20.114504,-19.038168,41.793892
0.407959,0.308105,0.726562,14.152672,-29.641222,47.221375
0.488281,0.401367,0.773193,8.061069,-36.923664,51.366413
0.531006,0.420654,0.811523,2.015267,-35.603054,59.152672
0.562988,0.452393,0.859619,-3.618321,-37.564884,67.809158
0.701172,0.489990,0.874756,-19.740458,-59.618320,73.641220
0.945801,0.351074,0.931152,-35.053436,-78.618324,71.923668
1.177002,0.136963,1.015625,-32.190838,-85.458015,69.816795
1.430908,0.073486,1.096436,-17.335878,-76.076332,73.221375
1.617920,0.093262,1.120850,-0.030534,-67.641220,64.389313
1.730713,0.163574,1.109375,16.000000,-60.114502,53.076336
1.754883,0.279785,0.959473,28.137405,-49.717556,36.885498
1.657959,0.413818,0.671387,31.870230,-40.374046,22.450382
1.495361,0.541016,0.445557,21.961832,-28.259542,18.160305
1.273193,0.580322,0.416748,4.809160,-21.572519,20.190840
1.083496,0.536621,0.376221,-15.954199,-31.488550,32.381680
1.097168,0.438232,0.441162,-32.007633,-35.832062,40.274811
1.159424,0.370850,0.436279,-26.893129,-25.969465,30.007633
1.142578,0.279541,0.397705,-19.427481,-5.366412,11.259542
0.994141,0.115234,0.431396,-13.938931,9.893129,-1.725191
0.897461,0.062012,0.459961,-7.053435,14.114504,-9.053435
0.890137,0.122559,0.439697,-1.916031,10.687023,-12.458015
0.890625,0.219971,0.492187,-4.519084,14.000000,-14.900764
0.764404,0.236328,0.532715,-1.572519,18.190840,-16.282442
0.709229,0.277344,0.590820,2.061069,14.267176,-12.603053
0.677490,0.269531,0.641113,4.000000,10.916031,-10.229008
0.679932,0.224121,0.665283,2.458015,7.702290,-8.190840
0.709229,0.142822,0.696777,-2.702290,5.198473,-7.412214
0.741455,0.041504,0.741211,-2.633588,7.931298,-9.389313
0.764648,-0.045898,0.739258,0.007634,12.671756,-12.381680
0.770752,-0.123291,0.760498,3.954198,18.396946,-11.946565
0.774170,-0.108887,0.803223,7.282443,28.412214,-10.145039
0.763428,-0.010010,0.801270,7.229008,38.068703,-11.259542
0.757568,0.094482,0.761475,1.061069,41.656490,-13.045801
0.763672,0.162109,0.663330,-9.351145,42.320610,-16.145039
0.750977,0.116211,0.547607,-22.206106,38.862595,-14.687023
0.728760,0.110840,0.558838,-25.885496,38.076336,-10.206107
0.734619,0.172852,0.582764,-19.526718,35.068703,-8.648855
0.741211,0.232666,0.605957,-10.358779,34.450382,-7.030534
0.752930,0.289307,0.582520,-3.603053,36.465649,-3.992366
0.725342,0.307617,0.517090,-7.511450,38.366413,-2.526718
0.669678,0.265625,0.519287,-12.526717,34.885498,0.946565
0.684326,0.260498,0.553711,-10.206107,30.687023,3.305344
0.738281,0.302734,0.535400,-3.160305,29.007633,-0.030534
0.753906,0.344971,0.496338,2.465649,30.587786,-5.183206
0.720703,0.305664,0.448242,-0.534351,28.206106,-8.251908
0.682129,0.202881,0.427246,-6.969466,22.458015,-7.251908
0.677734,0.147705,0.490967,-10.320611,18.641222,-6.893130
0.687500,0.146973,0.529297,-7.916030,15.854961,-7.931298
0.706299,0.155762,0.550537,-5.404580,14.396947,-8.763359
0.712158,0.185791,0.586426,-4.351145,14.770992,-10.778625
0.711426,0.184814,0.590576,-1.267176,14.458015,-13.160305
0.697510,0.143311,0.547363,1.801527,13.114504,-14.969465
0.671875,0.108643,0.574951,7.068702,14.183207,-15.809160
0.656250,0.094971,0.534912,10.679389,11.885496,-17.488550
0.618164,0.074219,0.561768,7.274809,12.106871,-14.267176
0.588623,0.082520,0.637695,6.259542,7.969466,-11.480916
0.613770,0.137451,0.707764,8.290076,6.244275,-9.770992
0.656494,0.210937,0.747559,12.328244,8.763359,-11.541985
0.675537,0.283691,0.744141,13.183207,12.839695,-15.900764
0.655518,0.246338,0.701172,7.083970,12.641221,-18.679390
0.640137,0.171387,0.715088,2.877863,14.770992,-19.770992
0.641602,0.109131,0.690918,4.748092,13.206107,-22.290077
0.631836,0.038818,0.699707,7.427481,15.587787,-20.778625
0.615723,0.028809,0.717529,13.297709,19.366413,-18.664122
0.610840,0.074219,0.742187,19.320610,21.977098,-15.755725
0.618164,0.109619,0.770996,22.687023,24.213741,-13.938931
0.647705,0.115723,0.784424,25.992367,25.641222,-12.610687
0.684570,0.077148,0.827637,31.916031,31.503817,-13.312977
0.715332,0.091553,0.823730,38.519085,39.297710,-18.625954
0.706055,0.138916,0.723145,39.290077,44.106869,-23.427481
0.664795,0.193359,0.659912,34.358780,44.549618,-26.206106
0.625000,0.208252,0.583984,27.656488,35.473282,-25.335878
0.624268,0.221436,0.618896,32.312977,30.984734,-27.213741
0.647705,0.298828,0.626465,37.702290,29.740458,-31.068703
0.612305,0.359375,0.581055,40.038166,30.190840,-32.564884
0.561523,0.367676,0.577393,38.870228,29.755726,-29.732824
0.539795,0.429199,0.569336,33.954197,27.778625,-28.465649
0.506348,0.477539,0.524414,21.038168,23.282442,-28.198473
0.481934,0.499023,0.455078,1.664122,15.870229,-26.709923
0.452881,0.435303,0.486328,-19.206106,8.183207,-23.541985
0.448975,0.382813,0.539795,-33.946564,-4.175572,-18.435114
0.507568,0.403564,0.598389,-41.694656,-14.870229,-13.129771
0.566650,0.397217,0.633789,-49.816795,-16.664122,-8.931297
0.593994,0.337646,0.677246,-55.160305,-11.549619,-6.366412
0.578857,0.298096,0.708252,-53.061069,-5.282443,-5.877862
0.561035,0.192871,0.720215,-48.572517,-7.755725,-6.229008
0.591553,-0.017090,0.829102,-23.900763,-7.786260,-6.030534
0.685791,-0.007568,0.778320,0.526718,5.167939,-9.961832
0.625977,0.158691,0.584961,4.885496,22.763359,-14.442748
0.449219,0.256592,0.458496,-4.992366,22.328245,-11.083969
0.324707,0.236328,0.456299,-7.282443,6.900764,-5.633588
0.403564,0.270752,0.526611,-7.145038,-12.076336,-7.541985
0.534180,0.250000,0.612305,-7.580153,-23.045801,-20.748091
0.594482,0.140381,0.583252,-5.923664,-21.480917,-31.625954
0.507812,0.023437,0.477295,8.137404,-4.519084,-35.206108
0.352783,0.038330,0.371094,36.755726,8.534351,-40.045803
0.220215,0.171387,0.209717,60.488548,-0.274809,-44.183205
0.192139,0.245117,0.205566,72.335876,-28.603054,-43.511452
0.295898,0.195557,0.288086,54.198475,-65.068703,-41.755726
0.432617,0.156738,0.333252,18.000000,-66.740456,-43.198475
0.357910,0.145264,0.586670,-2.236641,-32.923664,-34.106869
0.281982,0.234619,0.783447,3.290076,-24.343512,-9.099236
0.298340,0.515625,0.955811,-6.870229,-23.450382,11.870229
0.396240,0.674316,1.082764,-30.198473,-45.137405,30.916031
0.542969,0.606689,1.139893,-39.282444,-71.061066,36.419846
0.691406,0.424072,1.165771,-37.045803,-79.610687,46.282444
0.927979,0.479492,1.107422,-32.167938,-72.648857,62.297710
1.140137,0.581299,1.015381,-31.389313,-64.297707,57.114502
1.234863,0.565186,0.985352,-41.129772,-50.702290,46.312977
1.242432,0.469727,0.979736,-40.007633,-41.244274,31.938931
1.202881,0.395020,0.957764,-31.175573,-39.236641,20.694656
1.185547,0.410400,0.945068,-12.129771,-38.328243,9.167939
1.189209,0.530518,0.943848,4.824428,-35.458015,5.419847
1.197998,0.602539,0.773682,7.885496,-30.442749,-1.435115
1.096191,0.538086,0.724365,6.236641,-14.938931,-6.801527
0.918457,0.509033,0.636719,7.900764,-8.343512,-7.854962
0.792725,0.488281,0.612305,1.129771,-14.366412,-4.114504
0.732178,0.433350,0.632324,-7.137404,-23.274809,1.580153
0.737793,0.361328,0.629639,-10.488549,-29.480917,8.068703
0.768799,0.358154,0.640381,-11.244275,-30.274809,11.763359
0.815186,0.352295,0.610596,-10.015267,-29.931297,15.015267
0.846924,0.348145,0.591064,-10.282443,-22.748091,15.931297
0.844482,0.327881,0.598145,-9.969465,-16.557251,13.396947
0.844727,0.295898,0.595215,-9.793893,-13.290076,10.366412
0.832764,0.257324,0.631348,-8.015267,-11.358779,5.908397
0.827148,0.241211,0.639893,-6.748092,-12.351145,4.458015
0.860596,0.263672,0.671143,-4.236641,-8.877863,4.809160
0.889160,0.327637,0.687988,0.526718,-4.366412,2.045802
0.906982,0.382080,0.689941,4.389313,0.213740,-3.969466
0.928223,0.391113,0.672852,6.519084,4.648855,-9.702291
0.966064,0.377197,0.684570,8.442748,10.938931,-17.572519
0.996582,0.348877,0.702148,11.587787,16.122137,-25.419847
1.040771,0.340820,0.716553,16.030535,22.022902,-33.076336
1.067871,0.335449,0.729736,18.366413,32.091602,-41.435116
1.041992,0.313965,0.729736,19.641222,42.236641,-46.473282
0.996826,0.299072,0.733398,22.083969,48.748093,-48.030533
0.952148,0.298828,0.783447,25.114504,53.755726,-45.893131
0.911133,0.333008,0.823730,29.488550,61.038166,-44.122139
0.866211,0.398193,0.837402,35.450382,70.526718,-43.900764
0.811768,0.489990,0.823730,36.656490,81.610687,-42.809162
0.743408,0.582520,0.802246,32.816795,90.931297,-42.564884
0.654053,0.624023,0.750000,23.816793,91.564888,-43.458015
0.578125,0.576416,0.678955,11.366412,86.167938,-43.564884
0.521973,0.449707,0.669189,0.366412,78.137405,-41.862595
0.495605,0.330566,0.657715,-4.687023,73.725189,-38.519085
0.501709,0.292480,0.601318,-0.816794,73.832062,-35.419846
0.478516,0.255615,0.574707,3.458015,77.519081,-29.908398
0.444336,0.273193,0.593994,-0.366412,80.366409,-24.816793
0.413086,0.312988,0.603027,-11.633588,72.984734,-23.984734
0.417969,0.333008,0.652344,-27.862595,62.916031,-22.091602
0.445801,0.320557,0.648682,-43.885498,54.549618,-21.274809
0.440674,0.256592,0.610596,-50.519085,52.381680,-22.839695
0.378174,0.183594,0.553223,-43.358780,50.763359,-22.778625
0.305908,0.164795,0.524658,-27.183207,46.801525,-19.839695
0.281250,0.210937,0.537354,-13.664123,35.931297,-15.610687
0.317139,0.269775,0.583740,-8.206107,27.984734,-12.099236
0.369141,0.328125,0.604980,-8.435115,25.496183,-10.511451
0.386963,0.356201,0.657227,-10.748092,26.305344,-9.938931
0.382813,0.370850,0.677734,-11.839695,24.786259,-10.763359
0.380371,0.385010,0.692627,-11.938931,23.213741,-11.236641
0.391846,0.403809,0.667480,-15.351145,21.480917,-11.106871
0.373291,0.358887,0.650879,-20.709923,21.503817,-10.832061
0.353516,0.304443,0.646729,-21.580153,20.175573,-8.824428
0.354736,0.301758,0.652588,-17.335878,17.961832,-7.251908
0.363281,0.337646,0.637695,-13.618320,16.641222,-5.320611
0.368408,0.364746,0.628662,-16.114504,15.290076,-3.633588
0.364746,0.341797,0.675537,-16.954199,11.732824,-0.297710
0.391846,0.326660,0.683105,-14.541985,8.488549,0.267176
0.394287,0.283447,0.717773,-11.770992,7.580153,1.740458
0.395996,0.276367,0.725098,-7.129771,6.419847,2.435115
0.403564,0.299316,0.714600,-3.740458,2.549618,3.427481
0.427002,0.343750,0.735596,-2.549618,-1.297710,4.748092
0.450928,0.368164,0.744141,-2.458015,-4.007634,5.908397
0.474121,0.388184,0.733887,-2.648855,-5.236641,5.473282
0.476562,0.397705,0.730469,-3.496183,-5.282443,4.984733
0.463379,0.377441,0.728760,-4.122138,-8.160305,4.519084
0.464844,0.359131,0.736816,-4.687023,-11.290076,4.824428
0.495361,0.352051,0.765381,-5.503817,-13.625955,4.229008
0.514404,0.355469,0.807373,-4.389313,-13.061069,2.824427
0.532471,0.358643,0.843018,-2.664122,-11.900764,0.748092
0.531738,0.357422,0.846924,-0.992366,-9.526717,-1.061069
0.506836,0.328613,0.826660,-1.022901,-7.770992,-3.190840
0.484619,0.318848,0.812744,-0.748092,-5.969466,-3.061069
0.462891,0.281494,0.779785,-2.740458,-5.931298,-2.854962
0.441895,0.270996,0.754639,-5.183206,-3.473282,-1.511450
0.420654,0.254395,0.721191,-6.816794,-4.206107,0.572519
0.416260,0.265869,0.735840,-6.740458,-5.068702,2.885496
0.429443,0.302490,0.750488,-6.557252,-5.274809,3.412214
0.433105,0.332275,0.764893,-7.549618,-6.137404,3.885496
0.428467,0.310547,0.801514,-6.954198,-7.083970,4.580153
0.424805,0.282715,0.829834,-2.244275,-7.259542,4.198473
0.436279,0.276611,0.832275,6.282443,-5.167939,4.786260
0.445312,0.276611,0.829346,13.732824,-2.671756,6.801527
0.463867,0.308594,0.822266,17.572519,0.175573,8.000000
0.476074,0.329590,0.811523,15.564885,2.022901,9.030535
0.479492,0.342529,0.787109,12.061069,3.030534,9.076336
0.474365,0.343506,0.789307,11.389313,4.183206,9.580153
0.479248,0.370117,0.802246,13.778625,3.557252,8.061069
0.507812,0.415039,0.870850,17.129770,1.961832,6.900764
0.560547,0.449951,0.931396,20.854961,3.404580,4.511450
0.581787,0.443848,0.938721,25.091602,7.801527,0.328244
0.572266,0.450439,0.895264,28.793894,15.366412,-3.839695
0.533936,0.453125,0.796143,28.396946,17.847328,-7.488550
0.472412,0.418701,0.673584,18.145039,16.618320,-11.412213
0.411865,0.368896,0.580566,3.030534,11.625955,-12.175572
0.390137,0.318359,0.593262,-8.030535,2.969466,-12.091603
0.420166,0.269775,0.612061,-10.732824,-3.648855,-11.511451
0.436523,0.220459,0.637695,-5.229008,-2.206107,-12.580153
0.405518,0.165771,0.582031,6.328244,-0.244275,-10.419847
0.355225,0.152832,0.482910,21.603054,2.824427,-4.435114
0.294678,0.173828,0.317383,31.885496,3.847328,0.862595
0.190918,0.145020,0.169922,35.687023,-1.282443,7.702290
0.089844,0.071289,0.030029,33.671757,-14.717557,18.748091
0.015625,0.045410,-0.029297,34.717556,-28.641222,29.465649
-0.023682,0.235352,0.139893,48.221375,-36.969467,34.030533
0.009277,0.548828,0.248047,54.732826,-52.938931,33.152672
0.106934,0.731201,0.240723,35.572517,-74.893127,32.664124
0.174072,0.689697,0.351807,4.458015,-86.541985,35.244274
0.229492,0.596191,0.555176,-6.839694,-86.106873,40.015266
0.289795,0.612061,0.830078,-23.854961,-80.076332,55.702290
0.456055,0.833740,1.101563,-58.877861,-81.824425,72.221375
0.748047,0.878662,1.403809,-80.778625,-92.320610,72.206108
0.963135,0.547607,1.509521,-92.091606,-99.419846,50.954197
1.025146,0.041992,1.446045,-79.832062,-83.870232,47.152672
1.118652,-0.072266,1.348389,-32.030533,-57.282444,30.603054
1.129150,-0.052490,1.118164,-8.664123,-41.328243,23.664122
1.127686,0.137695,1.108154,-10.816793,-24.465649,21.961832
1.122559,0.189941,1.066162,-15.916031,-28.099237,11.625955
1.126709,0.208008,1.073486,-5.923664,-17.816793,9.938931
1.054932,0.408447,0.967285,17.488550,3.045802,7.496183
0.939453,0.614990,0.842773,17.122137,10.755725,7.770992
0.798340,0.569824,0.704590,6.656488,4.564886,9.740458
0.673340,0.428467,0.804443,8.770992,-3.541985,15.015267
0.652588,0.482422,0.788818,0.572519,-16.694656,23.625954
0.803223,0.542480,0.865723,-2.770992,-41.229008,26.244274
0.976562,0.548340,0.930176,-8.816793,-42.511452,21.969465
0.999756,0.537842,0.814209,-15.465649,-32.610687,16.236641
0.898682,0.421143,0.771484,-22.572519,-25.954199,18.053434
0.802490,0.347412,0.741699,-20.801527,-26.847328,25.694656
0.828857,0.357666,0.735840,-16.038168,-31.328245,34.160305
0.905762,0.380859,0.759521,-11.473283,-30.465649,32.503819
0.963867,0.347168,0.779541,-8.320611,-24.832062,29.000000
0.995850,0.389404,0.771484,-6.099236,-12.801527,23.198473
1.007568,0.373779,0.801758,-8.404580,-5.641222,15.007633
1.035400,0.322998,0.846680,-6.641222,3.389313,8.793893
1.072754,0.284668,0.797852,-1.076336,14.717557,-0.427481
1.078125,0.259033,0.787354,2.870229,29.007633,-11.877863
1.041504,0.270264,0.862305,15.076336,44.877861,-21.038168
1.086426,0.349609,0.890869,29.969465,51.045803,-31.358778
1.151123,0.408936,0.853760,39.198475,64.435112,-41.694656
1.082275,0.395752,0.721191,42.236641,84.725189,-50.206108
0.882812,0.348145,0.540283,42.702290,99.633591,-50.694656
0.622070,0.312256,0.417725,40.175571,103.625954,-48.106869
0.383057,0.327637,0.415039,38.984734,96.786263,-45.847328
0.225830,0.419678,0.498047,35.389313,78.755722,-43.419846
0.192139,0.543945,0.624268,23.526718,61.389313,-43.564884
0.239990,0.587158,0.634521,-0.923664,43.503819,-43.984734
0.276123,0.423828,0.606445,-33.083969,30.381680,-43.488548
0.256104,0.074463,0.601562,-54.175571,20.587786,-34.816795
0.268799,-0.143066,0.672607,-43.328243,19.564886,-22.992367
0.378418,-0.049316,0.806152,-7.488550,27.755726,-12.778625
0.489258,0.278564,0.865479,21.572519,43.335876,-11.030535
0.502930,0.547607,0.842041,23.511450,50.114502,-15.961832
0.455322,0.583252,0.787354,6.664122,46.389313,-19.839695
0.430420,0.504883,0.809814,-16.496183,38.167938,-20.480917
0.472168,0.377441,0.734863,-25.488550,29.366413,-22.030535
0.490479,0.169434,0.665527,-33.061069,23.633587,-21.854961
0.453369,0.042725,0.736816,-25.839695,28.106871,-17.641222
0.436768,0.091064,0.825195,-3.648855,28.022902,-14.519084
0.479248,0.285156,0.893555,14.511451,33.175571,-13.488549
0.513916,0.443115,0.871826,21.038168,39.000000,-13.335877
0.494141,0.500488,0.792480,14.000000,40.152672,-16.832062
0.409912,0.375244,0.693359,-1.809160,33.374046,-19.671755
0.373047,0.228027,0.732910,-9.770992,25.541985,-15.832061
0.410645,0.172607,0.771729,-7.526718,22.122137,-13.633588
0.419678,0.198730,0.810547,-4.770992,25.122137,-14.770992
0.402100,0.306152,0.785889,-0.732824,28.480917,-14.587787
0.386475,0.407959,0.758057,-3.053435,26.381680,-13.870229
0.393555,0.470947,0.751465,-11.022901,20.740458,-9.679389
0.411133,0.395264,0.744629,-22.198473,11.748092,-8.633588
0.425293,0.318604,0.753662,-26.343512,14.038168,-6.503817
0.430420,0.244141,0.732178,-22.870230,13.450381,-4.717557
0.406738,0.237061,0.739258,-18.641222,17.068703,-3.183206
0.370850,0.285889,0.744141,-15.000000,17.549618,-1.946565
0.376953,0.334473,0.689453,-16.984734,12.137404,0.564885
0.378174,0.333008,0.694336,-21.725191,11.473283,3.618321
0.379639,0.350342,0.691650,-20.419847,9.648855,3.183206
0.406006,0.377441,0.685059,-20.183207,6.038168,1.709924
0.408936,0.371094,0.721436,-22.488550,4.648855,1.778626
0.411621,0.353271,0.746094,-20.702290,3.061069,0.946565
0.420410,0.343994,0.758545,-19.099237,2.366412,-0.511450
0.409912,0.322266,0.739502,-18.633587,3.175573,-1.526718
0.397217,0.303711,0.712646,-18.832062,2.671756,-1.198473
0.394775,0.268799,0.712646,-18.801527,-0.290076,0.221374
0.411133,0.254150,0.732666,-16.007633,0.099237,0.923664
0.412109,0.265381,0.742432,-12.732824,0.549618,1.129771
0.402100,0.320557,0.773926,-10.641221,1.038168,0.412214
0.399902,0.343994,0.812744,-11.320611,-1.297710,0.183206
0.411133,0.343262,0.802002,-13.496183,-3.366412,-1.374046
0.410400,0.316162,0.783447,-15.648855,-4.541985,-3.526718
0.402588,0.282471,0.742432,-16.458015,-6.618320,-4.786260
0.396729,0.266113,0.730225,-15.885496,-7.961832,-5.000000
0.382568,0.264160,0.708008,-16.625954,-11.374045,-4.404580
0.374268,0.246826,0.707031,-21.000000,-15.786260,-2.885496
0.369873,0.228516,0.733643,-23.625954,-18.358778,-1.282443
0.386719,0.222656,0.776855,-22.679390,-20.732824,0.374046
0.426758,0.242920,0.830566,-17.045801,-20.435114,1.038168
0.456787,0.292969,0.862305,-9.251908,-15.954199,0.893130
0.433350,0.297119,0.834229,-6.656488,-11.526717,0.366412
0.393066,0.279053,0.792725,-5.809160,-11.694656,2.061069
0.376465,0.251465,0.777344,-4.435114,-12.068703,4.106870
0.379395,0.238037,0.737061,-3.763359,-12.427481,7.427481
0.381104,0.243652,0.689209,-3.328244,-11.458015,9.343512
0.361816,0.252197,0.675537,-0.618321,-11.229008,10.893129
0.364502,0.275879,0.705811,4.534351,-13.061069,11.656488
0.392090,0.301758,0.714600,7.083970,-14.404580,11.732824
0.415527,0.327881,0.705811,7.465649,-13.595420,12.786260
0.401855,0.265625,0.640625,6.847328,-14.694656,12.854961
0.367432,0.193359,0.571045,10.083969,-15.839695,13.610687
0.348389,0.176270,0.515381,15.045801,-17.358778,13.954199
0.333008,0.178955,0.467529,18.442749,-23.122137,14.801527
0.327637,0.176270,0.420166,14.709924,-29.328245,13.832061
0.343018,0.182861,0.441162,20.580153,-32.404579,16.656488
0.375977,0.268066,0.461182,26.496183,-30.809160,12.175572
0.353271,0.305664,0.590820,30.969465,-29.977098,6.671756
0.373535,0.356445,0.875000,41.709923,-25.297710,2.251908
0.470459,0.419189,0.881348,52.969467,-18.282442,-6.816794
0.427490,0.383789,0.568848,51.122139,-1.129771,-19.427481
0.172852,0.262939,0.363037,47.015266,9.328244,-20.862595
0.014648,0.263916,0.429932,41.954197,-5.671756,-10.152672
0.083252,0.371826,0.498047,27.763359,-34.778625,3.587786
0.187012,0.364258,0.700928,-7.496183,-43.381680,22.435114
0.280762,0.373779,0.864258,-31.916031,-50.496181,38.885498
0.360596,0.438477,1.104980,-30.328245,-50.114502,47.534351
0.447998,0.520996,1.230225,-35.091602,-54.343510,40.603054
0.516357,0.290039,1.252197,-82.549622,-68.595421,67.137405
0.805908,0.027344,1.510010,-93.465652,-73.183205,89.404579
1.135498,-0.208008,1.586914,-30.992367,-67.770996,50.435116
1.392090,-0.190674,1.634277,7.618320,-46.427483,21.038168
1.535645,0.072266,1.573975,37.870228,-17.725191,-6.580153
1.472656,0.324951,1.380615,43.687023,13.267176,-30.351145
1.307373,0.604004,0.934326,34.938931,25.793894,-37.824429
1.000000,0.615234,0.533936,16.916031,42.328243,-42.267174
0.635254,0.604980,0.581299,16.381680,47.847328,-31.923664
0.522217,0.775879,0.651123,16.480917,19.007633,-17.015266
0.651367,0.736328,0.734131,11.679389,-10.732824,-5.129771
0.715576,0.557861,0.813477,7.022901,-3.450382,-2.641221
0.677979,0.507812,0.817627,9.145039,-9.961832,1.717557
0.700195,0.410645,0.795410,5.328244,-15.587787,4.045802
0.687500,0.349609,0.842041,9.183207,-8.664123,1.229008
0.616943,0.339844,0.822510,9.709924,-9.618320,-0.160305
0.565918,0.355713,0.805420,8.312977,-11.251908,-2.206107
0.521973,0.362061,0.779541,1.656489,-14.137404,-3.557252
0.525879,0.344971,0.744629,-6.564886,-26.045801,-0.091603
0.572021,0.352051,0.724854,-12.580153,-34.877861,-2.969466
0.627197,0.343750,0.740723,-13.587787,-33.328243,3.557252
0.659668,0.374268,0.759033,-16.946566,-29.221375,2.412214
0.656006,0.362549,0.759766,-21.641222,-28.259542,4.053435
0.672607,0.340088,0.782227,-22.213741,-31.297710,5.580153
0.710205,0.336670,0.772461,-23.549618,-30.824427,4.229008
0.736328,0.325684,0.766846,-24.473282,-28.068703,6.328244
0.756348,0.334229,0.735352,-27.091602,-26.885496,5.320611
0.755859,0.318115,0.736572,-31.114504,-25.748091,4.137404
0.745117,0.302246,0.754883,-26.763359,-21.923664,7.366412
0.745850,0.324707,0.770264,-23.389313,-18.580153,8.473283
0.755371,0.354248,0.790283,-17.961832,-17.709923,7.931298
0.788574,0.361816,0.826172,-16.778625,-17.091602,7.595420
0.844971,0.367432,0.881348,-13.793893,-14.068703,7.793893
0.924072,0.395508,0.941895,-11.038168,-9.305344,4.755725
0.993408,0.422607,0.989502,-5.709924,1.335878,-0.114504
1.039307,0.435791,1.018555,0.641221,16.610687,-4.022901
1.052490,0.450928,1.021729,4.824428,36.396946,-8.251908
1.007324,0.436279,0.963379,6.267176,53.946564,-14.419847
0.912842,0.379883,0.881104,6.496183,65.435112,-20.916031
0.808594,0.290039,0.800781,6.404580,70.068703,-25.030535
0.719238,0.216797,0.702393,8.816793,72.664124,-28.625954
0.631836,0.208008,0.651123,9.648855,75.877861,-30.664122
0.525879,0.222656,0.591064,7.320611,74.167938,-31.251909
0.441406,0.238281,0.614014,-2.969466,68.274811,-30.122137
0.388672,0.229736,0.651611,-9.938931,56.885498,-25.297710
0.403564,0.226318,0.651367,-18.458015,46.717556,-22.465649
0.415527,0.184082,0.669434,-23.709923,42.496181,-22.389313
0.404297,0.164062,0.706299,-22.702290,40.885498,-20.389313
0.396729,0.141357,0.763916,-24.206106,39.175571,-16.847328
0.398438,0.141113,0.805908,-21.786259,37.022900,-11.251908
0.405273,0.164551,0.834961,-16.702290,38.526718,-8.190840
0.396240,0.206543,0.791504,-13.442748,38.145039,-5.893130
0.357422,0.203369,0.800537,-12.793893,37.923664,-1.167939
0.349121,0.215820,0.760498,-12.557252,33.916031,3.396947
0.351318,0.208496,0.748535,-13.374045,30.916031,5.389313
0.358154,0.224609,0.727783,-10.793893,28.458015,8.580153
0.374023,0.285400,0.700195,-10.557252,28.641222,6.633588
0.348389,0.311035,0.666260,-13.900764,26.709923,7.908397
0.323975,0.302490,0.642090,-19.297710,21.122137,10.656488
0.309326,0.282959,0.656250,-22.816793,15.435115,12.419847
0.330078,0.272217,0.679199,-20.572519,9.320611,17.076336
0.376221,0.291260,0.689453,-15.488549,6.732824,18.198473
0.380859,0.293701,0.700928,-12.480916,8.534351,17.549618
0.367676,0.283447,0.693848,-10.816793,6.625954,19.198473
0.371338,0.273682,0.711914,-11.335877,4.816794,19.633587
0.386719,0.246094,0.723389,-10.633588,2.572519,19.916031
0.419922,0.226318,0.736084,-6.366412,2.877863,20.793894
0.440918,0.243408,0.745605,-1.862595,5.480916,18.923664
0.447510,0.270996,0.733154,2.748092,7.114504,16.709923
0.447266,0.284180,0.715576,3.793893,7.793893,16.450382
0.443604,0.291504,0.710449,1.374046,7.496183,15.748092
0.438477,0.270020,0.713623,-3.007634,6.259542,14.274809
0.448486,0.219482,0.727539,-6.328244,5.167939,14.656488
0.449951,0.155762,0.753906,-7.000000,6.015267,14.938931
0.442871,0.128906,0.778564,-1.366412,8.396947,14.496183
0.448730,0.158203,0.759521,8.038168,7.770992,14.580153
0.459717,0.195312,0.751953,13.404580,6.633588,15.366412
0.461182,0.222412,0.724365,18.389313,5.603054,17.740458
0.446045,0.220947,0.703613,19.106871,3.305344,18.816793
0.435547,0.228516,0.691406,18.122137,1.015267,18.190840
0.424316,0.197266,0.760254,14.893129,-2.610687,18.000000
0.426025,0.183105,0.819092,14.076336,-4.984733,19.137405
0.452881,0.211182,0.890625,15.511451,-6.206107,18.458015
0.498535,0.258545,0.951416,22.229008,-6.396946,15.786260
0.512207,0.310547,0.965576,29.877863,-1.671756,10.801527
0.482666,0.339111,0.913086,33.129772,1.297710,5.618320
0.436523,0.341064,0.839355,25.946566,-0.786260,1.572519
0.396484,0.266602,0.814453,14.000000,-6.129771,2.664122
0.393555,0.201660,0.813965,5.786260,-9.465649,4.511450
0.404785,0.156494,0.833496,0.625954,-12.114504,6.236641
0.412354,0.144043,0.881104,1.419847,-10.129771,7.923664
0.403076,0.190674,0.874512,5.847328,-7.862596,9.519084
0.375488,0.249023,0.837891,6.366412,-7.389313,11.465649
0.345703,0.258057,0.821777,2.106870,-10.893129,13.396947
0.343262,0.229004,0.798828,-2.954198,-16.465649,15.702291
0.365723,0.193359,0.758301,-7.206107,-19.954199,17.312977
0.376221,0.150635,0.742676,-10.610687,-21.587786,18.648855
0.387207,0.130371,0.743652,-10.374045,-23.145039,19.305344
0.409424,0.150635,0.723633,-6.435114,-24.503817,19.839695
0.420166,0.162354,0.726562,-0.862595,-24.335878,21.267176
0.427490,0.187012,0.710449,5.564886,-24.099237,21.534351
0.429687,0.180176,0.694092,9.793893,-23.656488,22.282442
0.402588,0.145996,0.668701,13.931297,-20.175573,24.480917
0.386475,0.119385,0.654053,19.206106,-21.511450,25.908398
0.386719,0.127197,0.545898,23.511450,-25.923664,27.267176
0.378418,0.097656,0.480225,24.129770,-29.709923,29.198473
0.351318,0.091797,0.360107,27.290077,-34.679390,30.580153
0.303955,0.088867,0.339111,23.496183,-45.000000,32.702290
0.294434,0.087891,0.396240,25.206106,-57.923664,37.702290
0.338867,0.144043,0.485840,30.679390,-66.770996,40.473282
0.418213,0.276367,0.549316,34.580154,-67.900764,39.679390
0.500732,0.415527,0.510254,31.809160,-70.251907,35.625954
0.595215,0.554932,0.699951,19.931297,-65.244278,27.679390
0.666504,0.666748,0.686035,3.190840,-59.190838,10.160305
0.626221,0.545898,0.698242,-20.778625,-56.061069,6.167939
0.607422,0.373535,0.610107,-38.618320,-57.809162,4.053435
0.617676,0.183105,0.569580,-46.374046,-61.488548,7.603054
0.664551,0.119141,0.654297,-45.061069,-51.374046,14.366412
0.656006,0.119629,0.789307,-40.450382,-41.580154,20.549618
0.617187,0.095947,0.973145,-36.870228,-40.580154,22.931297
0.565186,0.024170,1.110596,-36.793892,-46.190838,26.557251
0.593750,-0.028564,1.212646,-35.244274,-66.061066,31.442749
0.763672,-0.066162,1.274902,-32.442749,-81.083969,36.961834
0.992187,-0.037109,1.347900,-22.580153,-82.290077,37.053436
1.184326,0.051514,1.321289,-7.854962,-70.793892,27.801527
1.224609,0.113525,1.173096,-0.916031,-49.465649,22.137405
1.206787,0.124756,1.100830,0.885496,-39.175571,21.625954
1.230469,0.167480,1.006104,7.610687,-35.366413,16.083969
1.246582,0.284912,0.940674,19.900763,-30.732824,10.893129
1.290039,0.508789,0.781738,24.572519,-19.709923,6.702290
1.255615,0.551514,0.550781,11.015267,-12.099236,0.870229
1.163574,0.441895,0.399414,-3.801527,-9.251908,-5.610687
1.134521,0.313965,0.464844,-8.442748,-12.847328,-11.740458
1.159180,0.236572,0.554199,0.320611,-4.877862,-18.755726
1.148682,0.177490,0.598877,7.419847,14.015267,-25.282442
1.074463,0.193115,0.623047,16.007633,33.687023,-34.381680
0.987793,0.306885,0.583252,19.893129,43.702290,-46.862595
0.919922,0.372559,0.551514,12.709924,46.755726,-55.977100
0.898682,0.354980,0.583740,3.969466,50.870228,-60.740459
0.884521,0.297607,0.607178,1.335878,57.870228,-68.053436
0.822998,0.213135,0.616943,2.687023,64.167938,-72.297707
0.758545,0.171387,0.534424,8.221375,65.847328,-72.839691
0.658691,0.116211,0.567871,8.045801,67.152672,-67.671753
0.574219,0.164551,0.699951,14.641221,66.038170,-61.328243
0.580566,0.357422,0.837158,25.389313,59.694656,-56.656490
0.641357,0.537109,0.863770,22.946566,56.717556,-56.305344
0.662109,0.582764,0.803711,7.167939,57.580154,-55.717556
0.593994,0.408447,0.642578,-13.068703,51.877861,-49.358780
0.435059,0.130371,0.613770,-24.984734,51.877861,-39.175571
0.307617,-0.029785,0.639893,-16.854961,43.083969,-26.488550
0.324463,0.054443,0.732910,-0.916031,29.977098,-13.496183
0.451416,0.241211,0.813965,7.603054,21.793894,-4.786260
0.567383,0.386719,0.874023,5.022901,26.450382,-1.946565
0.582764,0.405762,0.895020,2.282443,32.694656,-0.160305
0.571777,0.386230,0.873779,-0.091603,31.603054,0.595420
0.595459,0.373291,0.881348,-0.450382,23.931297,-0.687023
0.655029,0.370361,0.895996,0.687023,17.435114,-2.564885
0.699219,0.345947,0.908691,-0.923664,15.282443,-2.022901
0.704346,0.314453,0.911865,1.061069,18.129770,-3.038168
0.653564,0.295166,0.905273,0.770992,21.541985,-4.877862
0.606201,0.277344,0.877441,-3.557252,20.664122,-5.694656
0.573242,0.223389,0.882812,-9.717557,17.938931,-4.938931
0.560547,0.179199,0.901611,-10.931297,16.160305,-2.328244
0.572510,0.164062,0.923096,-9.458015,15.190840,-4.045802
0.571533,0.182129,0.966309,-4.198473,17.755726,-6.251908
0.565918,0.248291,0.940430,-2.267176,21.374046,-9.534351
0.542725,0.290527,0.893555,-11.396947,22.549618,-12.549619
0.519531,0.288086,0.870117,-21.488550,20.610687,-12.557252
0.527832,0.277100,0.857910,-29.129770,19.045801,-14.389313
0.541016,0.247559,0.847168,-30.679390,20.328245,-15.274809
0.529785,0.240234,0.813965,-29.931297,23.854961,-16.709923
0.491455,0.217285,0.796143,-27.816793,25.557251,-16.473282
0.462402,0.206787,0.749268,-27.145039,26.977098,-15.152672
0.438721,0.180420,0.751953,-29.366413,27.633587,-12.137404
0.443359,0.197998,0.822754,-25.717558,29.061069,-7.312977
0.463135,0.259766,0.827148,-23.419847,30.603054,-9.534351
0.457031,0.272461,0.787109,-28.137405,31.954199,-8.809160
0.440430,0.226318,0.787109,-34.519085,34.076336,-2.458015
0.440918,0.182373,0.819580,-35.465649,35.839695,0.893130
0.461182,0.140869,0.872803,-30.129770,40.183205,2.938931
0.500488,0.171631,0.889648,-16.122137,50.931297,7.404580
0.507324,0.269043,0.868408,-7.267176,64.068703,7.908397
0.466797,0.316895,0.851807,-4.244275,71.267174,6.374046
0.436035,0.322754,0.822754,-0.541985,72.190842,7.229008
0.445801,0.332520,0.777100,2.503817,72.908394,6.923664
0.423340,0.343750,0.712158,2.648855,73.763359,3.076336
0.366699,0.413818,0.617920,-16.358778,69.488548,-2.206107
0.310547,0.217041,0.774170,-3.404580,62.106869,7.923664
0.407471,0.220947,0.785400,-10.473283,50.587788,5.045802
0.408447,0.216064,0.789551,-2.847328,61.748093,-1.068702
0.388916,0.269531,0.769531,2.809160,60.595421,3.748092
0.353760,0.323975,0.701416,5.900764,57.038166,-0.320611
0.307861,0.348877,0.692871,1.916031,47.412212,-4.114504
0.298828,0.353516,0.700195,-5.847328,36.007633,-3.809160
0.320313,0.324463,0.770752,-12.312977,28.595419,-5.274809
0.345703,0.283936,0.799561,-15.198473,24.114504,-8.885496
0.340576,0.234131,0.828369,-15.061069,23.374046,-11.847328
0.318359,0.200439,0.852539,-11.022901,22.885496,-12.343512
0.309814,0.197998,0.832031,-7.145038,21.793894,-12.816793
0.305176,0.209961,0.816650,-6.328244,20.564886,-12.381680
0.297607,0.212891,0.806396,-5.045802,18.389313,-10.885496
0.293213,0.231689,0.767334,-4.870229,16.870230,-11.145039
0.270752,0.241211,0.749023,-6.633588,14.496183,-11.145039
0.245850,0.221191,0.776855,-8.732824,10.244275,-8.977099
0.258545,0.195068,0.822266,-8.893129,6.427481,-8.503817
0.273682,0.179443,0.830322,-5.832061,6.160306,-8.564885
0.256348,0.167725,0.810303,-1.885496,6.946565,-8.007633
0.236816,0.177246,0.779297,1.465649,5.335878,-6.114504
0.225830,0.174316,0.758057,3.862595,1.595420,-3.778626
0.248779,0.198730,0.753662,3.435115,1.145038,-0.793893
0.244141,0.208252,0.739990,1.022901,0.938931,1.809160
0.222412,0.221680,0.724365,-3.038168,-1.954198,2.572519
0.202393,0.211914,0.722656,-6.564886,-8.259542,1.435115
0.209717,0.190186,0.715820,-8.648855,-15.526717,1.564885
0.223145,0.160645,0.735596,-7.946565,-19.427481,1.709924
0.254150,0.137451,0.761230,-3.267176,-22.419847,1.870229
0.276367,0.135010,0.781250,4.198473,-21.297710,1.221374
0.276367,0.166504,0.765625,10.358779,-19.633587,1.427481
0.260254,0.210205,0.735840,13.702291,-20.839695,3.145038
0.245117,0.250000,0.710937,11.167939,-25.572519,4.083970
0.242920,0.260742,0.736084,6.412214,-31.664122,6.045802
0.263184,0.246826,0.811279,7.076336,-36.412212,9.419847
0.308105,0.269287,0.828857,6.564886,-35.374046,9.129771
0.302246,0.271973,0.799072,6.030534,-35.145039,8.503817
0.270752,0.254150,0.785156,3.374046,-36.236641,8.312977
0.247559,0.223633,0.782471,4.000000,-39.320610,9.236641
0.266602,0.201904,0.769043,6.007634,-42.664124,12.007633
0.308350,0.208008,0.819336,4.496183,-44.755726,16.190840
0.315430,0.188965,0.829102,8.625955,-41.572517,17.335878
0.303223,0.154297,0.770752,16.725191,-42.778625,19.687023
0.296387,0.158936,0.728760,21.312977,-42.145039,20.465649
0.270508,0.134766,0.642334,25.480917,-46.213741,23.564886
0.266846,0.140381,0.614502,29.206106,-49.007633,27.603054
0.265625,0.114990,0.521484,39.786259,-58.786259,31.900763
0.246094,0.087646,0.541504,48.740459,-62.519085,36.893131
0.259033,0.100098,0.521973,66.564888,-74.236641,42.305344
0.371094,0.140137,0.610840,83.916031,-81.129768,49.152672
0.515381,0.381592,0.876709,95.679390,-68.038170,46.832062
0.516846,0.730225,0.836914,84.145035,-52.954197,33.007633
0.308838,0.732910,0.727783,33.900764,-55.938931,25.770992
0.149414,0.531006,0.695068,-9.671756,-81.648857,28.190840
0.240723,0.447998,0.789551,-45.595421,-106.267174,38.076336
0.437744,0.354736,1.052979,-78.969467,-111.412216,49.534351
0.626953,0.174561,1.021484,-98.129768,-115.137405,48.694656
0.744141,-0.104736,1.064941,-99.877861,-110.732826,42.603054
0.759277,-0.260010,1.030029,-74.992363,-88.015266,37.992367
0.763672,-0.120605,0.990479,-39.877861,-77.473282,42.732826
0.806641,0.154053,1.011230,-23.709923,-75.435112,43.259541
0.879639,0.301270,1.128174,-23.809160,-77.923668,44.152672
1.006836,0.279053,1.228760,-31.106871,-75.045799,49.328243
1.161133,0.178711,1.234863,-26.656488,-64.763359,43.030533
1.250732,0.111084,1.246338,-8.404580,-49.923664,27.160305
1.259521,0.185303,1.191406,10.488549,-30.893129,15.534351
1.225830,0.264893,1.147461,20.160305,-17.870230,5.679389
1.206299,0.237061,0.947021,19.030535,-13.007633,1.427481
1.130859,0.327148,0.802979,21.198473,3.412214,-12.099236
0.986328,0.432373,0.604492,21.145039,5.534351,-12.793893
0.959961,0.531982,0.526611,6.213740,-1.587786,-12.366412
0.954102,0.505615,0.553711,-4.061069,-7.984733,-15.740458
0.944580,0.374756,0.652832,-10.305344,-4.740458,-14.206107
0.900635,0.272949,0.635498,-11.946565,4.587786,-16.000000
0.801270,0.202148,0.643799,-7.664122,6.282443,-18.435114
0.737305,0.175537,0.649170,-3.725191,4.419847,-17.862595
0.694580,0.172119,0.667725,-3.251908,4.160306,-17.244274
0.677734,0.164795,0.690430,0.549618,3.770992,-14.328244
0.678955,0.196533,0.684326,6.770992,9.961832,-14.450381
0.633545,0.214355,0.645996,8.068703,15.748092,-14.641221
0.590088,0.190674,0.621582,8.022901,17.007633,-10.396947
0.582031,0.165039,0.600586,6.564886,16.801527,-8.625955
0.572021,0.151611,0.619629,8.503817,15.923664,-7.748092
0.570068,0.165039,0.631592,9.229008,15.175572,-5.938931
