ax,ay,az,gx,gy,gz
0.925049,0.237549,0.163574,1.244275,4.549618,-6.740458
0.936523,0.213623,0.178467,-1.068702,0.229008,-7.259542
0.957764,0.205322,0.196533,1.335878,0.167939,-7.557252
0.961182,0.199707,0.190674,4.442748,0.641221,-6.977099
0.970947,0.234863,0.182617,8.312977,3.679389,-5.167939
0.949707,0.254150,0.170166,6.068702,5.847328,-4.267176
0.943848,0.251465,0.142090,3.022901,4.076336,-2.931298
0.971191,0.214600,0.156250,0.404580,5.412214,-2.801527
0.966309,0.214355,0.190430,5.809160,12.839695,-1.564885
0.942871,0.271484,0.171387,5.641222,16.503817,1.824427
0.947510,0.289551,0.156006,-4.290076,12.732824,1.122137
0.948242,0.243652,0.188232,-8.076336,11.946565,-0.435115
0.949951,0.193359,0.187500,-8.083969,13.198473,1.335878
0.965820,0.210937,0.210693,-4.129771,14.015267,-0.244275
0.946045,0.239990,0.207764,-3.267176,15.473283,1.496183
0.954834,0.270020,0.212402,-6.297710,11.992367,3.229008
0.958252,0.255615,0.223145,-8.900764,10.404580,2.732824
0.981201,0.258301,0.212646,-12.366412,9.709924,4.862596
0.994873,0.272705,0.247803,-14.053435,11.854961,5.564886
0.967529,0.282471,0.250244,-18.633587,12.381680,8.435115
0.963379,0.268311,0.194580,-26.137405,7.045802,10.946565
0.994141,0.234375,0.282227,-29.068703,4.946565,13.335877
1.022705,0.263428,0.243408,-31.656488,7.007634,13.908397
1.003174,0.274902,0.215088,-39.061069,7.656488,14.145039
1.016113,0.246338,0.170898,-47.687023,8.000000,15.625955
1.037109,0.190430,0.205811,-52.847328,10.206107,12.427481
1.062744,0.155273,0.280029,-44.137405,13.190840,16.755726
1.212891,0.266846,0.054687,-42.511452,19.137405,12.068703
1.315186,0.313721,0.404785,-43.229008,24.687023,4.954198
1.425293,0.319336,0.439209,-39.480915,36.488548,0.519084
1.507324,0.241699,0.545898,-31.961832,55.099236,-5.549618
1.575684,0.193115,0.646973,-18.557251,80.870232,-19.931297
1.589844,0.186768,0.852051,7.923664,106.679390,-29.435114
1.547852,0.153076,1.048096,51.427483,119.061066,-32.015266
1.458008,0.365479,0.970215,125.221375,127.557251,-46.938931
1.262451,0.618408,0.440430,179.587784,136.870224,-72.221375
1.010986,0.868164,-0.398926,169.511444,120.183205,-87.442749
0.891357,1.080811,-0.593262,109.396950,91.877861,-93.236641
0.827148,1.005859,-0.318848,41.923664,60.748093,-93.282440
0.903809,1.066162,-0.111084,19.221375,33.404579,-98.633591
1.083496,1.222900,-0.274658,-10.458015,20.793894,-110.679390
1.306885,1.338379,0.167236,-35.305344,34.625954,-128.106873
1.399170,1.386230,-0.042236,-50.190838,49.580154,-170.236649
1.280762,1.247559,-0.263916,-98.328247,46.213741,-212.175568
1.147705,1.049561,-0.110352,-141.229004,39.519085,-237.083969
1.167725,1.131348,0.032471,-160.793900,29.206106,-250.137405
1.243652,1.336670,0.028809,-178.488556,30.541985,-250.137405
1.191895,1.349854,0.016357,-201.297714,37.748093,-250.137405
1.030762,1.228760,0.016602,-215.656494,34.763359,-250.137405
0.889404,1.096191,0.016602,-216.183212,23.496183,-250.137405
0.780029,0.946289,0.043213,-202.656494,15.877863,-250.137405
0.671143,0.783936,0.083252,-185.908401,11.801527,-250.137405
0.586670,0.614258,0.147461,-170.137405,11.526717,-250.137405
0.559814,0.428711,0.270752,-167.580154,12.969465,-250.137405
0.530029,0.235352,0.412354,-170.061066,6.114504,-250.137405
0.552490,0.109863,0.483643,-179.358780,2.664122,-250.137405
0.555420,-0.041748,0.548340,-199.206100,1.450382,-250.137405
0.503174,-0.172607,0.485596,-220.641220,3.549618,-250.137405
0.344727,-0.304932,0.446533,-232.847336,9.603053,-250.137405
0.186768,-0.384766,0.448242,-227.045807,6.549618,-250.137405
0.116211,-0.419922,0.433838,-205.709930,-13.519084,-231.885498
0.237549,-0.446289,0.451416,-193.473282,-46.923664,-206.427475
0.462402,-0.531738,0.517090,-190.152664,-66.885498,-175.832062
0.598145,-0.592285,0.587158,-181.465652,-56.603054,-142.961838
0.562988,-0.570557,0.597412,-153.977097,-33.862595,-117.450378
0.398682,-0.539795,0.209229,-128.351151,-19.595419,-98.007637
0.457764,-0.704590,1.022217,-140.648849,0.534351,-45.290077
0.758301,-0.718506,1.531250,-97.351143,-71.648857,-4.297710
0.910156,-0.523437,1.227051,-33.282444,-23.572519,-26.404581
0.404297,-0.419189,1.196289,33.152672,82.564888,-22.030535
0.079834,0.073242,0.832031,104.274811,58.549618,2.709924
-0.071533,0.553711,0.738037,141.870224,55.908398,8.396947
-0.184570,0.847656,0.358154,146.022903,27.442749,17.015266
-0.179932,0.961182,0.084961,101.473282,-1.282443,23.687023
-0.141357,0.890625,-0.049561,25.679390,-17.419847,21.343512
-0.036133,0.660156,-0.020508,-45.679390,-47.893131,13.473283
0.160645,0.395264,-0.083496,-87.503815,-86.229004,-3.748092
0.299316,0.193359,-0.055664,-88.793892,-103.633591,-29.549618
0.300293,0.064697,-0.111084,-56.229008,-100.595421,-43.992367
0.232178,0.130615,-0.088379,-13.816793,-80.572517,-38.442749
0.154785,0.210693,-0.120605,6.061069,-76.625954,-20.007633
0.119873,0.055664,-0.164551,-15.732824,-98.274811,5.236641
0.178955,-0.332031,0.042236,-72.916031,-115.969467,33.526718
0.317627,-0.758301,0.411377,-113.167938,-122.282440,55.229008
0.467041,-0.824463,0.412354,-109.931297,-130.832062,55.549618
0.370117,-0.618164,0.069336,-68.358780,-116.137405,45.633587
-0.062500,-0.467529,-0.257813,-17.725191,-89.778625,56.679390
-0.459473,-0.157959,-0.504639,72.038170,-79.923668,82.900764
-0.631348,0.172852,-1.195068,108.725189,-141.900757,100.732826
-0.616211,0.180908,-1.583984,106.725189,-238.190842,127.648857
-0.298828,0.510742,-1.719482,109.435112,-250.137405,134.198471
0.005615,0.912598,-1.317627,136.549622,-250.137405,126.221375
0.918945,1.250488,1.984314,206.290070,-250.137405,128.984726
1.984314,1.454590,1.314453,26.503817,-250.137405,228.114502
1.984314,1.984314,1.984314,-41.770992,-13.229008,245.328247
1.984314,1.984314,1.984314,-250.137405,18.343512,149.022903
1.984314,-0.181396,1.984314,-250.137405,-140.572525,104.534348
1.984314,-1.530029,1.984314,-201.122131,-250.137405,-33.450382
1.984314,-1.224365,0.379150,-106.297707,-250.137405,-225.793900
1.467285,0.465332,0.899414,98.793892,105.877861,-238.465652
0.710205,0.883789,1.218506,217.435120,248.175568,28.549618
1.291992,1.041016,1.223633,162.083969,206.748093,99.022903
1.069580,1.048340,0.940674,83.251907,10.541985,42.091602
1.435547,1.053711,1.085449,3.488550,-59.473282,13.839695
1.832520,0.368408,1.197510,-18.221375,-14.854961,2.770992
1.938232,0.620117,0.808105,17.725191,-20.236641,-24.977098
1.984314,0.841797,0.871094,27.091602,-37.007633,-43.190838
1.856445,0.915771,0.945557,55.679390,43.358780,-57.641220
1.572021,0.712402,0.921387,64.969467,89.114502,-52.786259
1.291992,0.576416,0.876709,36.442749,104.534348,-57.297710
1.025146,0.455078,0.819092,13.053435,102.473282,-85.862595
0.807373,0.417969,0.677490,-3.511450,103.671753,-121.351143
0.567139,0.492676,0.437500,-7.709924,108.786263,-148.450378
0.284668,0.444580,-0.034912,-26.832062,101.091606,-150.068695
0.001221,0.361816,-0.542480,-66.557251,100.114502,-131.503815
-0.303467,0.031250,-0.730469,-129.526718,89.519081,-106.312981
-0.547363,-0.417969,-0.499023,-176.549622,58.282444,-75.687019
-0.528564,-0.681641,-0.401855,-183.320618,11.000000,-56.213741
-0.424316,-0.939209,-0.273926,-165.603058,-18.580153,-43.465649
-0.441650,-1.164307,-0.423584,-134.366409,3.389313,-17.648855
-0.728760,-1.298340,-0.475342,-76.679390,57.809162,30.625954
-1.093506,-1.153809,-0.565430,8.351145,83.671753,84.885498
-1.405029,-0.776123,-0.756836,76.603050,39.435116,118.687019
-1.381104,-0.290527,-1.048096,131.053436,-55.137405,145.282440
-1.113037,0.029541,-1.613525,144.488556,-141.007629,153.389313
-1.113281,0.037354,-2.000000,117.824425,-173.030533,176.580154
-1.412354,0.054932,-1.644531,153.549622,-197.671753,226.099243
-0.979004,1.013184,-0.187500,248.175568,-250.137405,227.740463
0.371094,1.824951,1.796387,248.175568,-250.137405,165.351151
1.984314,1.927734,1.868652,-38.267174,-250.137405,248.175568
1.984314,1.984314,1.984314,-194.717560,-93.152672,248.175568
1.984314,1.279297,1.984314,-250.137405,41.709923,39.389313
1.984314,-1.738281,1.984314,-250.137405,-98.190842,-7.305344
1.984314,-1.781006,0.376465,-123.641220,-218.541992,-205.900757
1.984314,0.414062,1.429688,216.916031,95.129768,-250.137405
1.243652,1.363770,1.084717,248.175568,248.175568,-172.534348
0.611572,1.477051,0.593506,225.893127,248.175568,110.374046
0.237061,1.217041,0.228760,26.732824,192.793900,127.221375
1.042969,1.047363,0.988525,-13.839695,-92.755722,13.694656
1.984314,0.951904,1.194092,-65.419846,-24.290077,-64.267174
1.984314,0.928223,1.015869,-68.793892,43.190838,-158.312973
1.724609,0.448975,1.198486,-13.885496,105.442749,-169.572525
1.302246,0.251221,1.231445,44.007633,162.290070,-115.396950
1.268311,0.425781,1.216309,74.503815,183.564880,-89.480919
1.249268,0.472168,1.191406,68.580154,209.977097,-93.549622
0.898437,0.586670,0.948242,36.076336,227.000000,-98.778625
0.449707,0.808105,0.170654,4.305344,205.740463,-118.328247
0.010498,0.654053,-0.624268,-73.381676,172.832062,-144.687027
-0.496582,-0.187744,-1.178223,-187.816788,126.221375,-141.946564
-0.829346,-0.770264,-0.830566,-245.709930,74.778625,-107.961830
-0.751221,-0.954590,-0.827637,-213.862595,17.137405,-73.358780
-0.512451,-1.035400,-0.757080,-159.290070,-29.854961,-59.755726
-0.541748,-0.885986,-1.127686,-89.946564,-8.000000,-46.557251
-1.017822,-0.792236,-1.726318,-36.511452,52.610687,1.106870
-1.680420,-0.886230,-2.000000,-37.053436,73.770996,82.229004
-2.000000,-1.105957,-2.000000,-54.320610,11.076336,160.755722
-2.000000,-1.223877,-2.000000,-51.083969,-150.114502,213.732819
-2.000000,-0.932129,-2.000000,29.442749,-250.137405,227.839691
-1.346924,0.126465,0.954590,248.175568,-250.137405,170.267181
1.438721,1.984314,1.984314,248.175568,-250.137405,69.748093
1.984314,1.984314,1.670166,199.267181,-250.137405,207.694656
1.984314,1.984314,1.984314,-250.137405,-86.694656,248.175568
1.984314,0.126709,1.984314,-250.137405,248.175568,196.274811
1.984314,-2.000000,0.117920,-250.137405,197.053436,-202.343506
1.460449,-1.726563,1.032227,31.664122,-178.183212,-250.137405
0.624756,1.023682,1.548828,248.175568,123.839691,-250.137405
0.028809,1.279785,1.356934,248.175568,248.175568,-46.106869
0.784668,1.696289,1.496338,144.145035,248.175568,177.526718
0.898437,1.476318,1.162598,23.297710,70.389313,77.274811
1.708496,0.925293,1.743164,-41.534351,-9.412213,-19.206106
1.984314,0.695557,1.693848,-72.175575,59.977100,-90.870232
1.984314,0.231445,1.329102,-52.664124,98.786263,-157.473282
1.806641,0.058838,1.546631,-25.030535,200.740463,-165.969467
1.359863,0.252930,1.147461,43.511452,248.175568,-162.656494
0.863037,0.670410,0.532715,62.259541,248.175568,-150.618317
0.382080,0.851562,-0.544189,1.618321,247.427475,-139.801529
-0.089355,0.383789,-1.457764,-136.725189,190.725189,-131.412216
-0.604736,-0.549316,-1.556885,-250.137405,160.839691,-111.053436
-1.135742,-1.241455,-1.503906,-250.137405,169.984726,-63.885498
-1.557373,-1.384521,-1.724854,-249.557251,167.122131,-8.366412
-1.849365,-1.469238,-2.000000,-170.900757,151.732819,48.557251
-2.000000,-1.335938,-2.000000,-145.564880,95.770996,123.381676
-2.000000,-0.911133,-2.000000,-143.305344,-55.259541,190.900757
-2.000000,-0.768311,-2.000000,-72.809158,-250.137405,223.190842
-1.974365,-0.913574,-2.000000,137.625961,-250.137405,185.183212
0.063721,0.566650,1.984314,248.175568,-250.137405,48.053436
1.984314,1.984314,1.984314,248.175568,-250.137405,26.381680
1.984314,1.984314,1.704834,243.206100,-250.137405,184.152664
1.984314,1.984314,0.305664,-239.442749,232.671753,248.175568
1.984314,0.247803,-1.000244,-250.137405,248.175568,179.435120
1.893311,-0.959229,0.041748,-100.832062,248.175568,-212.992371
-2.000000,-1.792969,-0.454346,-16.709923,248.175568,-210.305344
-2.000000,0.376709,-0.134766,248.175568,-87.427483,62.290077
-0.555176,1.510254,1.326416,248.175568,-250.137405,-3.404580
1.650879,0.862305,1.256836,38.679390,-250.137405,-25.167938
1.984314,0.920410,1.627686,-74.580154,-174.160309,105.969467
1.984314,1.466553,1.539063,-78.709923,167.916031,-8.961832
1.984314,0.359863,1.259277,-38.862595,248.175568,-135.335876
0.763184,0.008789,0.821289,-34.786259,206.221375,-161.145035
0.300537,0.011719,0.992187,26.526718,102.816795,-147.396942
0.583496,0.354248,0.914551,51.969467,122.870232,-99.320610
0.869629,0.656006,0.658203,32.030533,133.587784,-65.725189
0.923340,0.893555,0.510742,0.931298,143.839691,-84.198471
0.746826,1.029541,0.261963,-39.511452,146.572525,-121.893127
0.508301,0.812744,-0.516357,-116.480919,121.770996,-147.725189
0.207031,0.107422,-0.581299,-221.244278,98.893127,-147.267181
-0.166260,-0.414795,-0.210693,-243.992371,115.732826,-122.175575
-0.505371,-0.738770,-0.554687,-221.633591,120.244278,-82.236641
-0.815430,-0.883057,-0.978760,-189.030533,129.938934,-43.152672
-1.107178,-1.112305,-1.976563,-163.458008,109.152672,7.870229
-1.430176,-1.378662,-2.000000,-129.366409,94.045799,81.633591
-1.725098,-1.265625,-2.000000,-69.977097,48.366413,162.801529
-1.857910,-0.634033,-2.000000,7.030534,-65.664124,207.641220
-1.885010,-0.141357,-2.000000,75.603050,-250.137405,182.320618
-1.893311,-0.399902,-2.000000,112.572517,-250.137405,155.458008
-0.869141,0.035156,1.587646,248.175568,-250.137405,145.541992
1.984314,1.741943,1.984314,248.175568,-250.137405,119.000000
1.984314,1.984314,1.984314,248.175568,-250.137405,208.045807
1.984314,1.984314,0.972168,31.198473,-56.374046,56.274811
1.984314,0.795654,0.361572,-250.137405,248.175568,73.335876
1.984314,-0.743652,0.902100,-250.137405,248.175568,42.572517
-0.899170,-2.000000,-0.171143,-250.137405,101.450378,-108.503815
-0.616699,-0.065918,1.506104,237.954193,-64.229004,-172.396942
0.047852,1.790771,0.084717,248.175568,-228.244278,-137.877869
1.702881,1.046875,1.100586,110.534348,-204.335876,7.702290
1.984314,1.842529,0.766602,71.435112,-7.839694,31.175573
1.984314,1.587158,0.253662,-16.091602,176.290070,-35.908398
0.563721,-0.018311,0.455566,-101.938934,230.679382,-53.671757
-0.662842,-0.889893,0.677002,-135.938934,104.633591,-24.877863
-0.514160,-0.652344,0.779053,-36.435116,-57.175571,2.496183
0.562012,-0.317627,1.054932,49.129772,-158.694656,-0.969466
1.562500,-0.003906,1.163086,47.091602,-104.702293,3.618321
1.634766,0.314209,0.882324,44.541985,21.557251,15.511451
0.758057,0.122314,0.840088,34.839695,111.061066,15.213740
-0.014648,0.037598,0.592773,26.656488,37.854961,25.938931
-0.031006,0.352295,0.596191,35.923664,-32.320610,26.977098
0.370605,0.562500,0.579102,28.435114,-59.679390,31.083969
0.781738,0.606201,0.673828,-3.603053,-41.816795,40.633587
0.935791,0.473877,0.737061,-39.694656,-16.961832,35.335876
0.793213,0.189453,0.819336,-54.664124,-7.916030,15.923664
0.696289,-0.106689,0.936523,-49.358780,-14.061069,14.007633
0.799561,-0.238281,1.044434,-29.465649,-11.419847,29.366413
0.948975,-0.274658,0.962891,-3.083969,2.938931,41.832062
1.001953,-0.290039,0.850342,12.687023,16.954199,46.083969
0.978027,-0.231689,0.755127,28.503817,26.648855,46.603054
0.967773,-0.125732,0.686768,38.816795,28.809160,43.366413
0.993896,-0.026123,0.712891,49.572517,34.809162,39.877861
0.992676,0.053711,0.659912,61.473282,44.992367,39.618320
0.940674,0.040039,0.592529,71.213737,49.396946,40.129772
0.879883,0.122070,0.368164,79.511452,44.717556,32.969467
0.833740,0.265869,0.225586,64.885498,48.206108,25.160305
0.764404,0.419678,0.179932,29.725191,48.297710,29.816793
0.725830,0.504639,0.289307,-5.832061,42.351147,35.213741
0.747803,0.468994,0.469971,-30.725191,30.435114,31.114504
0.800293,0.448486,0.628906,-29.526718,28.610687,20.603054
0.796631,0.393555,0.741455,-16.175573,37.458015,11.244275
0.753418,0.342285,0.756592,10.099236,45.671757,4.038168
0.721436,0.389404,0.740479,38.183205,54.137405,-4.847328
0.677734,0.484375,0.639404,53.083969,62.633587,-11.549619
0.604004,0.550781,0.562500,43.549618,67.282440,-14.007633
0.493164,0.557373,0.520264,16.381680,66.175575,-17.167938
0.427490,0.494141,0.629883,-4.694656,55.320610,-24.564886
0.421875,0.510010,0.573730,-23.129770,40.740459,-31.358778
0.386230,0.549316,0.536377,-46.083969,42.106869,-32.656490
0.339355,0.547363,0.461670,-75.633591,32.511452,-35.259541
0.307129,0.475586,0.462402,-102.862595,17.297710,-43.381680
0.286621,0.343018,0.455811,-121.587784,4.511450,-50.809162
0.306885,0.187500,0.431641,-135.229004,-3.778626,-53.129772
0.353027,0.071289,0.550049,-135.618317,-5.305344,-53.603054
0.433350,0.078857,0.684814,-119.480919,0.671756,-52.893131
0.508057,0.220703,0.743164,-100.183205,10.473283,-55.816795
0.532715,0.336670,0.761963,-81.595421,20.709923,-58.984734
0.498047,0.404297,0.735840,-75.297707,33.274811,-70.007637
0.402100,0.423584,0.704590,-78.534348,34.000000,-85.030533
0.333984,0.410889,0.704346,-89.534348,26.167938,-88.610687
0.349609,0.369385,0.751465,-103.419846,20.992367,-85.000000
0.410645,0.288574,0.820068,-114.000000,18.083969,-80.351143
0.486572,0.210205,0.826904,-116.404579,22.511450,-75.183205
0.507080,0.137939,0.772461,-114.076332,29.801527,-69.748093
0.474854,0.072510,0.735352,-103.900764,33.709923,-63.541985
0.462158,0.046143,0.714355,-86.458015,32.167938,-56.251907
0.490234,0.052734,0.673340,-67.755722,27.389313,-48.755726
0.535889,0.049316,0.702393,-50.664124,24.145039,-42.122139
0.587402,0.059326,0.767090,-35.572517,25.396946,-37.251907
0.741699,-0.489014,0.815918,61.725189,-160.908401,99.374046
0.804443,-0.062744,0.518311,4.870229,178.145035,12.916031
0.524902,-0.090576,0.840332,25.106871,22.534351,30.145039
0.567383,-0.032715,0.870361,1.000000,82.053436,62.832062
0.434814,0.027100,0.572998,-1.083969,98.770996,67.045799
0.480469,0.412354,0.892822,0.893130,47.564884,4.122138
0.128418,-0.312988,0.639404,3.641221,-31.854961,-74.030533
0.333496,-0.082520,0.849609,22.297710,-20.671755,-74.358780
0.634033,-0.010254,0.995361,30.358778,0.763359,-80.022903
0.593750,-0.029053,0.904541,48.900764,-23.320610,-63.007633
0.603027,0.117432,0.885010,50.099236,21.961832,-56.160305
0.476318,0.306152,0.804932,44.801525,19.648855,-26.900763
0.244385,-0.017090,0.930176,20.076336,55.564884,8.198473
0.220215,0.314209,0.863281,28.229008,25.610687,-2.786260
0.430176,0.169678,1.093262,29.885496,-18.282442,-12.916031
0.584961,0.083008,1.264648,41.190838,10.564885,-15.519084
0.585937,0.155273,1.141846,52.480915,45.702290,-15.015267
0.558105,0.373535,0.946045,50.618320,60.786259,-32.641220
0.406494,0.331787,0.781494,34.992367,51.740459,-43.076336
0.336182,0.246338,0.739502,21.396946,34.916031,-26.358778
0.356934,0.211182,0.790283,10.030535,32.412212,-9.519084
0.343994,0.158691,0.802490,6.435114,28.091602,-3.641221
0.323242,0.137451,0.843506,9.175572,26.824427,2.465649
0.292725,0.132080,0.809326,11.244275,23.343512,-2.954198
0.292969,0.090332,0.870117,13.625955,11.687023,-7.419847
0.328613,0.119141,0.903564,15.152672,12.106871,-8.503817
0.381592,0.164551,0.933594,12.122137,12.152672,-12.801527
0.372070,0.156738,0.995361,4.259542,28.664122,-28.595419
0.209229,0.148193,0.851807,4.030534,29.312977,-50.091602
0.224854,0.219971,0.766357,0.564885,-2.435115,-43.091602
0.392822,0.314697,0.846436,-14.435115,-11.671756,-17.931297
0.355957,0.276611,0.833008,-28.938931,12.877863,-3.465649
0.214111,0.260254,0.896729,-34.267174,-6.412214,27.458015
0.251709,0.409424,0.823975,-49.335876,16.770992,53.748093
0.418213,0.370117,0.883057,-68.091606,-17.160305,29.984734
0.460693,0.271973,0.973633,-75.312981,-6.068702,3.091603
0.398682,0.162109,0.976562,-80.091606,-6.145038,-6.206107
0.323486,-0.011475,0.993164,-77.152672,4.259542,-9.534351
0.288574,-0.042480,1.020996,-51.832062,8.442748,-7.160306
0.348877,0.179932,0.989746,-21.908398,8.702291,-6.076336
0.390137,0.338867,0.949463,-7.885496,8.129771,-11.167939
0.341797,0.425293,0.873535,-15.702291,-7.916030,-11.877863
0.310547,0.391357,0.842529,-45.267174,-25.610687,3.427481
0.442871,-0.177490,1.160156,-67.992363,-8.793893,33.572517
0.806641,-0.217773,1.039063,-60.221375,59.656490,40.732826
0.327148,0.204102,0.886475,-44.870228,69.045799,22.061069
0.267334,0.225830,0.938721,-41.389313,67.312981,19.427481
0.518066,0.226807,0.908691,-57.022900,87.732826,24.870230
0.402832,0.106445,0.793945,-74.480919,120.358780,39.618320
0.200684,0.069824,0.792480,-80.351143,122.114502,39.099236
0.107910,-0.016602,0.978271,-67.496185,111.625954,25.450382
0.030273,0.030518,1.033936,-53.809162,99.122139,11.213740
0.060059,-0.027832,1.106445,-42.801525,80.679390,8.053435
0.087402,-0.068848,1.025879,-37.435116,56.656490,6.374046
0.130615,-0.091064,0.973877,-21.603054,40.473282,-2.137405
0.270996,0.109619,0.939941,-12.778625,37.175571,-14.091603
0.240723,0.171387,0.857422,-27.206106,79.374046,-1.725191
0.205322,0.062256,0.960205,-44.496181,105.374046,7.244275
0.158447,-0.031738,1.064941,-51.916031,118.572517,4.847328
0.160156,-0.163574,0.920654,-45.229008,113.969467,-9.305344
-0.007324,-0.196533,0.904053,-37.580154,92.381676,-22.877863
-0.007324,-0.057129,0.901611,-16.572519,58.122139,-22.893129
0.053711,0.094482,0.864990,-1.832061,35.854961,-17.206106
0.072266,0.021729,0.760010,-5.244275,34.473282,-8.832061
0.041504,-0.071533,0.792725,-6.755725,32.900764,-1.992366
0.016602,-0.135010,0.814697,3.709924,33.290077,-0.053435
-0.020752,-0.165527,0.804199,20.816793,22.923664,-4.755725
-0.055176,-0.119385,0.819336,32.938931,1.000000,-1.145038
-0.044922,-0.125488,0.803467,43.267174,-24.244274,9.083969
-0.016113,-0.140869,0.809082,59.419846,-47.595421,24.450382
0.142334,-0.015625,0.835449,78.114502,-58.290077,12.358779
0.086182,-0.052979,0.892822,95.045799,-64.206108,-4.183206
0.071289,-0.031982,0.866943,113.519081,-79.564888,-11.152672
0.025391,-0.060303,0.878662,133.519089,-94.503815,-13.664123
0.033203,-0.003174,0.833740,154.770996,-139.053436,-31.343512
-0.012451,0.028320,0.824951,169.053436,-165.900757,-46.541985
0.111328,0.135010,0.932617,163.908401,-199.305344,-42.038166
0.298584,0.250244,0.987305,136.297714,-179.557251,-22.236641
0.578613,0.426025,1.131836,100.366409,-115.625954,-2.748092
0.577148,0.428467,0.870117,75.610687,-77.755722,8.916031
0.549316,0.312256,1.089355,47.931297,-77.030533,48.015266
0.591797,0.275391,1.063721,32.282444,7.839694,76.236641
0.639160,0.318359,0.829834,27.412214,-24.755726,55.770992
0.593262,0.278564,1.006592,27.496183,-40.145039,18.641222
0.368408,0.061279,0.991211,24.190840,-17.396946,18.305344
0.246094,-0.008789,0.960449,22.404581,-5.229008,31.893129
0.260254,0.032715,0.942383,26.549618,-17.557251,38.870228
0.358887,0.055176,0.978516,36.786259,-21.045801,43.030533
0.431152,0.059570,0.992676,45.824429,-15.435115,54.320610
0.450439,0.050781,1.022461,57.824429,-3.297710,68.816795
0.431641,0.036865,1.013184,67.564888,6.503817,77.129768
0.384521,0.018311,0.983887,77.282440,11.748092,85.099236
0.344238,0.010254,0.888916,84.083969,15.145039,96.030533
0.308350,0.029297,0.820068,94.305344,16.610687,108.549622
0.291260,0.076904,0.708984,112.213737,11.633588,117.114502
0.301270,0.096436,0.666748,126.480919,1.854962,120.954201
0.353760,0.183105,0.746094,148.458008,-2.625954,122.435112
0.430176,0.398193,0.941406,173.198471,5.083970,119.862595
0.505127,0.623291,1.086670,186.748093,18.900763,112.908394
0.517334,0.781494,1.091553,181.603058,40.213741,105.786263
0.450684,0.885986,1.018066,161.992371,60.748093,96.717560
0.356445,1.001709,0.919434,136.847336,69.328247,75.946564
0.250977,1.103027,0.848877,110.480919,60.175571,43.328243
0.165039,1.158203,0.794678,80.221375,42.854961,15.740458
0.158691,1.220703,0.834717,54.129772,33.641220,-10.656488
0.146240,1.231689,0.829834,21.839695,33.633587,-33.473282
0.097168,1.206299,0.806396,-14.480916,29.763359,-54.709923
0.036377,1.111084,0.767822,-47.580154,17.122137,-71.282440
-0.000732,0.941162,0.705811,-73.801529,2.625954,-84.007637
-0.021729,0.784668,0.666748,-93.816795,-10.900764,-88.122139
-0.009033,0.638428,0.663086,-106.137405,-27.877863,-91.152672
0.044189,0.456055,0.705322,-105.274811,-41.854961,-84.152672
0.166016,0.415283,0.701904,-98.870232,-50.183205,-80.335876
0.258057,0.357910,0.720703,-91.335876,-49.763359,-78.534348
0.318115,0.316406,0.678223,-87.389313,-40.702290,-65.213737
0.333496,0.218018,0.661865,-87.419846,-33.809162,-52.557251
0.288574,0.056641,0.631348,-80.007637,-38.618320,-43.106869
0.298584,-0.066406,0.676025,-64.328247,-49.977100,-37.374046
0.365967,-0.071533,0.714355,-41.030533,-58.213741,-32.473282
0.460693,0.006592,0.785156,-17.366413,-56.541985,-21.244274
0.548584,0.125732,0.845215,-1.908397,-47.274811,-6.343512
0.587158,0.208252,0.893799,3.259542,-36.404579,6.519084
0.617676,0.280762,0.885986,0.381679,-30.267176,11.717557
0.658936,0.290283,1.051025,-1.404580,-26.038168,11.854961
0.806152,0.263916,1.391846,11.137404,-20.656488,10.343512
1.029053,0.190674,1.256836,0.244275,-22.725191,7.854962
1.066650,0.065918,1.279541,1.488550,13.343512,7.824428
0.848145,0.125000,1.111328,32.969467,50.244274,3.007634
0.512695,0.180908,1.024902,67.748093,64.732826,-1.496183
0.372070,0.351807,0.976562,90.106873,51.824429,4.083970
0.434814,0.566406,0.829346,86.832062,36.068703,6.000000
0.477539,0.718506,0.677490,61.167938,42.061069,2.167939
0.384277,0.746338,0.625000,27.755726,38.160305,-11.938931
0.291016,0.650879,0.559570,-3.916031,19.526718,-24.961832
0.311279,0.461426,0.467529,-28.748091,2.381679,-30.167938
0.365234,0.281494,0.496826,-43.366413,-1.099237,-30.480917
0.414795,0.250977,0.542480,-33.954197,-0.396947,-33.190838
0.375488,0.304932,0.515381,-14.564885,9.458015,-37.465649
0.243896,0.311768,0.466064,-10.748092,11.389313,-34.587788
0.182861,0.243164,0.500000,-19.679390,1.175573,-26.893129
0.227783,0.172852,0.408691,-37.320610,-5.320611,-23.671755
0.216309,0.047607,0.102051,-65.450378,-13.778625,-25.229008
0.069336,-0.153076,-0.180420,-93.213737,-25.076336,-21.419847
-0.158203,-0.394531,-0.227295,-98.717560,-27.419847,-6.877862
-0.335205,-0.552246,-0.168213,-68.633591,-32.381680,17.763359
-0.416016,-0.472412,-0.416260,-18.931297,-69.076332,35.832062
-0.480469,-0.349854,-1.177490,-8.290076,-112.511452,43.870228
-0.703125,-0.315918,-1.687500,-25.259542,-130.267181,79.938934
-0.939941,-0.135986,-2.000000,-41.259541,-148.748093,126.465652
-1.123291,0.155029,-2.000000,-32.099236,-235.496185,154.763351
-1.159424,0.328613,-0.815918,64.511452,-250.137405,139.946564
-0.409424,1.016357,1.897461,248.175568,-250.137405,100.480919
1.984314,1.592041,1.984314,248.175568,-250.137405,111.335876
1.984314,1.963623,1.984314,6.015267,-28.908398,248.175568
1.984314,1.984314,1.984314,-128.755722,248.175568,242.908401
1.984314,0.906982,1.984314,-154.221375,141.625961,-101.893127
1.704590,-1.073486,0.823486,-135.091599,-230.274811,-188.259537
1.041992,-0.696777,-0.694580,-51.580154,-146.702286,-187.740463
0.433105,0.500488,0.375244,137.946564,147.000000,-97.198471
0.545166,1.493896,0.452393,183.229004,69.732826,38.282444
1.277832,1.096680,0.982178,-2.931298,-129.427475,67.267174
1.626221,0.625000,1.806885,-25.251909,-51.061069,33.274811
1.330322,0.373047,1.139160,-5.595420,56.954197,33.923664
1.578613,0.782715,0.954834,15.847328,-60.717556,19.053434
1.506104,0.629639,1.073730,37.335876,-1.946565,-16.992367
1.186035,0.426270,0.854492,50.320610,20.603054,10.015267
1.184814,0.514404,0.895508,49.740459,13.480916,11.213740
1.322021,0.510742,1.013184,45.167938,13.625955,-14.900764
1.418457,0.491211,1.054932,41.633587,39.648853,-42.083969
1.325195,0.499023,0.863281,19.885496,74.801529,-66.412216
1.009277,0.495605,0.656494,-2.328244,92.198471,-92.916031
0.663086,0.454346,0.417969,-16.809160,95.541985,-108.419846
0.401855,0.392090,0.218994,-27.984734,94.114502,-106.282440
0.172852,0.325439,0.023193,-42.374046,88.702293,-97.511452
0.002930,0.225586,-0.114258,-58.190838,76.618324,-92.068703
-0.172852,0.057617,-0.233643,-81.679390,57.503819,-88.534348
-0.312012,-0.168701,-0.285156,-105.374046,37.419846,-77.961830
-0.419922,-0.449951,-0.366455,-123.511452,23.137405,-60.603054
-0.599609,-0.696533,-0.306396,-129.129776,25.549618,-37.877861
-0.833984,-0.848633,-0.408203,-119.015266,35.656490,-7.770992
-1.076172,-0.888672,-0.392578,-87.137405,39.458015,30.366413
-1.091064,-0.700684,-0.726074,-39.786259,-7.625954,58.427483
-1.029785,-0.470215,-1.086426,13.351145,-72.549622,69.847328
-1.071045,-0.530029,-1.604248,45.412212,-122.656487,89.320610
-1.246582,-0.697998,-1.308838,73.320610,-175.992371,142.458008
-0.906982,0.036133,0.121338,198.206100,-250.137405,167.595413
0.428467,1.329834,0.849121,248.175568,-250.137405,137.427475
1.984314,1.757080,1.367188,146.206100,-246.847336,160.412216
1.984314,1.984314,1.984314,-69.358780,70.503815,244.259537
1.984314,1.411377,1.984314,-248.549622,135.694656,119.557251
1.984314,-1.045410,1.984314,-250.137405,-66.938934,-16.236641
1.984314,-1.521240,1.957275,-187.259537,-188.145035,-0.908397
1.984314,-0.409424,0.154785,-24.251909,-242.106873,-214.519089
1.771484,1.256836,0.581299,154.893127,19.038168,-250.137405
1.293213,1.596191,1.282471,248.175568,248.175568,-7.206107
1.045654,1.612793,0.905029,165.412216,248.175568,122.564888
0.312744,1.131348,0.535400,-6.984733,59.977100,80.175575
1.317627,0.761963,1.305176,-62.938931,-121.587784,10.618320
1.984314,0.506348,1.133789,-92.809158,-54.839695,-32.091602
1.984314,0.551514,0.942383,-51.954197,-18.687023,-96.633591
1.984314,0.176270,1.020020,-1.748092,53.877861,-137.068695
1.500732,-0.014404,1.062012,47.946564,123.717560,-112.160309
1.148438,0.041504,0.972900,67.656487,136.038162,-63.786259
1.006104,0.267090,1.118164,76.801529,119.885498,-57.770992
0.844727,0.442383,0.946533,81.717560,112.015266,-80.366409
0.589600,0.574707,0.649902,64.824425,122.114502,-106.656487
0.231689,0.500732,0.096680,15.007633,119.847328,-120.038170
-0.178223,0.235107,-0.104980,-52.145039,108.251907,-116.824425
-0.476318,0.035645,-0.116455,-89.778625,89.603050,-93.335876
-0.555420,-0.134521,0.009766,-99.740456,66.877861,-67.343513
-0.424316,-0.205322,0.290283,-88.290077,47.435116,-57.022900
-0.338379,-0.346680,0.074707,-89.824425,47.389313,-51.404579
-0.501465,-0.588135,-0.268311,-108.389313,64.312981,-27.793894
-0.706055,-0.707275,-0.751709,-120.625954,84.656487,4.763359
-0.930420,-0.692871,-1.199463,-111.572517,122.534348,38.977100
-1.290771,-0.609619,-1.416504,-77.877861,119.832062,72.374046
-1.565430,-0.548828,-1.713867,-37.854961,29.938931,98.824425
-1.507080,-0.557373,-2.000000,-21.213741,-127.458015,114.106873
-1.215576,-0.623535,-2.000000,-6.122138,-250.137405,120.992363
-0.917969,-0.643799,-2.000000,32.992367,-250.137405,151.030533
-0.349609,0.031250,-0.024414,164.572525,-250.137405,164.877869
1.177246,1.416992,1.984314,248.175568,-250.137405,128.030533
1.984314,1.607422,1.984314,87.847328,-243.259537,222.625961
1.984314,1.984314,1.984314,-52.274811,108.526718,248.175568
1.984314,0.847412,1.984314,-198.038162,248.175568,173.801529
1.984314,-1.110352,1.984314,-213.099243,70.412216,-18.854961
1.984314,-1.602051,0.627686,-114.755722,-250.137405,-224.412216
1.580811,0.091064,0.634766,198.000000,-37.786259,-250.137405
0.456055,1.974854,0.654785,248.175568,191.717560,-176.908401
0.627930,1.677734,0.822998,236.809158,248.175568,133.091599
0.734375,1.984314,0.063477,-60.152672,104.145035,117.526718
1.009766,0.811523,0.891357,-145.038162,-120.129768,40.458015
1.971924,0.674072,1.091309,-139.167938,-117.702293,-12.328244
1.984314,0.620605,0.797852,-100.358780,-38.870228,-92.145035
1.741211,0.325195,0.687744,-40.320610,10.366412,-115.839691
1.208496,0.090088,0.499023,19.946566,44.709923,-78.106873
0.910156,0.128662,0.430176,55.450382,39.824429,-31.343512
0.923828,0.347656,0.593506,95.824425,29.129770,-16.664122
1.020508,0.505859,0.522705,92.954201,21.122137,-21.977098
1.050293,0.605225,0.522461,72.091606,27.167938,-38.885498
0.916992,0.631104,0.446289,42.954197,34.961834,-71.625954
0.620361,0.507568,0.351318,16.992367,31.541985,-95.755722
0.355957,0.301514,0.226807,-0.770992,13.458015,-95.694656
0.299805,0.104980,0.208496,-4.664122,5.824428,-86.412216
0.335938,-0.010986,0.262939,-0.916031,-5.862596,-88.335876
0.381592,-0.108887,0.487061,8.412213,3.015267,-94.557251
0.368408,-0.279785,0.763184,6.893130,30.267176,-93.076332
0.304688,-0.296387,0.979736,13.709924,64.885498,-87.015266
0.176514,-0.229980,1.092773,25.259542,98.122139,-91.908394
-0.013672,-0.155029,0.917725,24.954199,129.816788,-91.671753
-0.293945,-0.169678,0.604492,-13.450381,161.045807,-83.564888
-0.681641,-0.375488,0.079346,-68.916031,165.236649,-65.755722
-1.019531,-0.559082,-0.351074,-120.816795,176.793900,-38.625954
-1.336914,-0.622070,-0.744873,-132.549622,185.335876,-0.290076
-1.558838,-0.629883,-1.297607,-123.213737,131.496185,38.748093
-1.595703,-0.517578,-1.907227,-116.946564,22.358778,62.450382
-1.593262,-0.673584,-2.000000,-122.137405,-77.984734,95.648857
-1.682129,-0.861328,-2.000000,-128.648849,-146.984726,162.206100
-1.529785,-0.442627,-2.000000,-41.755726,-250.137405,201.091599
-0.875977,0.626709,1.429443,127.946564,-250.137405,187.511444
1.984314,1.292480,1.984314,33.526718,-250.137405,237.870224
1.984314,0.535645,1.984314,-168.541992,-250.137405,248.175568
1.984314,0.307373,1.546143,-241.961838,-250.137405,186.526718
1.984314,-0.006104,-1.143555,-239.305344,-246.106873,-250.137405
1.984314,-0.340576,0.434082,0.366412,248.175568,-250.137405
0.392334,1.065186,1.984314,248.175568,248.175568,-250.137405
-2.000000,0.943848,0.609619,248.175568,248.175568,247.145035
-1.656494,1.211182,-0.445557,14.969465,63.786259,248.175568
-0.170410,1.406494,0.910645,14.954199,-250.137405,166.091599
1.968750,0.743652,1.223877,-127.083969,-250.137405,80.068703
1.984314,0.670898,1.488281,-217.839691,-249.038162,12.603053
1.984314,0.585937,1.602783,-151.984726,-110.618324,-139.954193
1.984314,-0.193848,1.798828,-46.282444,116.793892,-178.343506
1.380615,-0.561768,1.093262,50.664124,203.854965,-94.312981
1.051025,-0.202637,0.593262,88.519081,178.488556,-42.732826
0.994141,0.126709,0.276611,105.740456,150.557251,-56.221375
0.853760,0.336670,-0.192139,94.671753,137.671753,-75.335876
0.596680,0.423096,-0.352051,41.160305,150.251907,-85.381676
0.186523,0.395752,-0.372314,-30.083969,158.458008,-86.534348
-0.249512,0.390137,-0.287842,-74.480919,139.603058,-82.114502
-0.437256,0.337158,-0.164307,-75.694656,97.244278,-68.587784
-0.403076,0.278564,-0.053955,-68.992363,59.038166,-61.320610
-0.297852,0.212158,-0.335449,-62.343510,42.702290,-54.343510
-0.378662,-0.055908,-0.633545,-80.786263,50.847328,-39.297710
-0.632080,-0.357666,-0.877686,-96.847328,74.282440,-8.404580
-0.993652,-0.641602,-0.822754,-108.297707,104.717560,31.832062
-1.233887,-0.730713,-0.919922,-90.358780,85.511452,63.358780
-1.298096,-0.719238,-1.333740,-71.519081,-0.160305,59.870228
-1.237549,-0.725830,-1.589355,-40.129772,-95.625954,60.213741
-1.033691,-0.697754,-2.000000,-13.106871,-166.366409,71.832062
-1.047119,-0.718262,-2.000000,0.114504,-213.839691,101.748093
-1.070068,-0.611816,-1.827881,28.366413,-250.137405,145.877869
-0.802002,-0.378906,0.731934,156.374039,-250.137405,162.076340
0.542969,1.074463,1.984314,248.175568,-250.137405,122.862595
1.984314,1.984314,1.984314,248.175568,-250.137405,135.778625
1.984314,1.984314,1.984314,29.931297,67.854965,223.213745
1.984314,1.828857,1.984314,-250.137405,248.175568,182.549622
1.984314,-1.300049,1.984314,-250.137405,119.557251,21.603054
1.984314,-2.000000,1.023438,-183.183212,-250.137405,-54.717556
1.984314,-0.168457,0.663574,82.687019,-250.137405,-250.137405
1.526367,1.386963,1.625000,248.175568,248.175568,-250.137405
-0.169678,1.087402,0.440674,248.175568,248.175568,-1.908397
-0.414795,1.781738,-0.333252,144.839691,248.175568,227.007629
0.366699,1.984314,0.231201,-61.572517,-134.725189,101.694656
1.930420,1.114014,1.397461,-182.916031,-155.931305,17.068703
1.984314,1.029053,1.180176,-220.854965,-88.778625,-76.198471
1.984314,0.358887,1.163330,-149.458008,-70.274811,-187.160309
1.735596,-0.293701,1.503906,-51.053436,68.648857,-178.862595
1.184082,-0.318359,1.629150,67.587784,153.412216,-81.984734
1.152344,0.195312,1.351807,145.175568,191.732819,-40.755726
0.891113,0.465820,0.965576,151.541992,196.572525,-41.702290
0.530029,0.596436,0.377930,116.633591,159.511444,-58.648853
0.167480,0.525879,0.020020,35.770992,124.022903,-86.694656
-0.071533,0.442627,-0.027588,-40.679390,95.274811,-105.099236
-0.104248,0.280029,-0.069580,-87.045799,51.809162,-103.748093
0.066406,0.102783,-0.060547,-115.648857,29.664122,-85.038170
0.188477,-0.049316,-0.063232,-125.885498,32.709923,-75.335876
0.092529,-0.291504,-0.272949,-126.908394,32.793892,-74.625954
-0.144287,-0.533691,-0.325195,-118.908394,30.160305,-64.381676
-0.363037,-0.586182,-0.551758,-94.061066,26.969465,-42.320610
-0.576172,-0.618652,-0.426758,-64.328247,23.877863,-17.167938
-0.718994,-0.574463,-0.240479,-27.099237,-1.786260,6.229008
-0.698486,-0.482422,-0.483398,-5.496183,-43.374046,21.778625
-0.762939,-0.541260,-0.585693,-12.534351,-38.748093,42.450382
-0.939697,-0.574707,-0.899414,-25.297710,-30.977098,66.984734
-1.200684,-0.548828,-1.228516,-30.534351,-40.564884,91.732826
-1.469482,-0.574219,-1.368896,-5.572519,-84.786263,124.320610
-1.541260,-0.386963,-0.805176,83.061066,-207.152664,142.977097
-0.833740,0.482422,-0.175293,229.282440,-250.137405,118.496185
0.361572,1.278564,1.910889,248.175568,-250.137405,119.190842
1.984314,1.509766,1.984314,63.236641,-246.396942,240.282440
1.984314,1.984314,1.984314,-210.114502,9.404580,248.175568
1.984314,0.479248,1.984314,-250.137405,104.923668,248.175568
1.984314,-1.879883,1.302002,-250.137405,-164.786255,-34.770992
1.984314,-1.682617,-1.222900,-167.374039,-250.137405,-250.137405
1.673828,0.930664,1.984314,56.007633,41.755726,-250.137405
0.389893,1.452637,1.784180,248.175568,248.175568,-12.748092
1.330078,1.027832,0.355225,248.175568,248.175568,248.175568
1.628906,1.984314,-0.237793,61.030533,9.877863,105.213737
1.937256,1.623291,0.970215,-111.435112,-147.931305,-33.648853
1.984314,0.912842,0.874756,-159.786255,-96.587784,-26.709923
1.984314,0.391113,0.850586,-111.679390,-64.152672,-28.076336
1.984314,0.114990,1.046143,-48.748093,-0.625954,-44.832062
1.892822,0.049805,1.258545,24.282442,64.801529,-34.244274
1.778564,0.220703,1.415527,94.435112,115.480919,-34.473282
1.589111,0.240967,1.186035,126.022903,151.022903,-49.503819
1.285889,0.349365,0.704346,108.709923,167.083969,-74.404579
0.929932,0.505859,0.346436,58.816795,164.381683,-115.679390
0.505371,0.638672,0.058105,17.679390,153.671753,-145.381683
0.103760,0.533203,-0.054932,-22.961832,144.000000,-135.870224
-0.138916,0.310547,-0.500244,-71.045799,119.946564,-101.610687
-0.316895,-0.091797,-0.552490,-130.931305,98.931297,-73.442749
-0.505371,-0.410889,-0.113770,-142.977097,86.007637,-51.366413
-0.512451,-0.473389,0.379150,-98.687019,57.045803,-36.458015
-0.165771,-0.294434,0.529541,-52.442749,20.549618,-38.694656
0.168945,-0.243652,0.322021,-42.893131,27.320610,-35.312977
0.050537,-0.379395,-0.110596,-63.763359,76.083969,-21.770992
-0.477783,-0.552002,-0.408691,-70.290077,114.259544,-2.198473
-0.969482,-0.750977,-0.695801,-76.938934,117.366409,28.030535
-1.194092,-0.754639,-0.938477,-62.824429,69.793892,62.923664
-1.023438,-0.515137,-1.314209,-31.519083,-35.908398,74.427483
-0.731934,-0.333252,-1.580078,10.259542,-124.488548,64.358780
-0.715332,-0.311035,-1.797119,41.038166,-149.083969,65.389313
-0.999268,-0.423096,-1.835693,43.282444,-149.946564,97.587784
-1.195801,-0.392578,-0.997314,48.931297,-227.374039,139.770996
-0.477539,0.372803,0.750732,166.450378,-250.137405,144.969467
1.051025,1.110352,1.744629,248.175568,-250.137405,93.511452
1.984314,1.573242,1.984314,117.839691,-152.633591,151.603058
1.984314,1.974854,1.984314,-33.251907,203.137405,236.244278
1.984314,1.277100,1.984314,-227.305344,248.175568,105.770996
1.984314,-1.729004,1.984314,-224.610687,-9.396947,30.893129
1.984314,-0.371094,-0.427002,-64.404579,-250.137405,-171.366409
1.984314,1.662354,0.932617,185.954193,-61.412212,-250.137405
0.341309,1.496094,1.984314,248.175568,248.175568,-165.763351
-0.114990,0.909424,-0.061523,166.045807,248.175568,245.236649
0.995117,1.943359,-0.151367,-35.045803,-137.404587,167.045807
1.984314,1.241455,1.103516,-194.732819,-208.442749,35.007633
1.984314,0.890381,0.960205,-215.030533,-156.618317,-19.786259
1.984314,0.233887,1.118896,-134.229004,-87.198471,-100.870232
1.666504,-0.224609,1.255615,-21.083969,30.106871,-94.725189
1.301025,-0.097412,1.199219,97.755722,67.229004,-28.755726
1.402832,0.395996,1.111816,151.282440,98.511452,-3.335878
1.364258,0.566650,0.833008,147.389313,127.167938,-20.190840
1.151855,0.691406,0.529053,100.740456,135.946564,-65.488548
0.801514,0.711182,0.333496,44.366413,131.190842,-117.900764
0.376953,0.589600,0.214355,-12.900764,117.160309,-142.824432
0.018555,0.336914,0.011230,-51.946564,109.114502,-116.511452
-0.162842,0.126953,-0.198486,-78.015266,106.893127,-82.740456
-0.283447,-0.063232,-0.243164,-89.114502,97.984734,-66.335876
-0.351074,-0.238281,-0.133545,-86.977097,70.450378,-58.961834
-0.236084,-0.352539,-0.045166,-72.992363,37.030533,-52.572517
-0.068115,-0.420654,-0.100342,-56.641220,32.076336,-47.549618
-0.195312,-0.581299,-0.590332,-45.900764,49.175571,-33.893131
-0.622314,-0.840820,-0.772461,-38.954197,96.809158,-2.206107
-1.147705,-1.011719,-1.111572,-23.236641,147.099243,47.656490
-1.596680,-0.997803,-1.389893,3.114504,108.732826,94.396950
-1.623291,-0.686279,-1.995361,26.877863,-29.931297,107.404579
-1.558350,-0.358887,-2.000000,49.351147,-155.793900,98.587784
-1.864258,-0.371094,-1.210205,85.450378,-241.000000,97.503815
-1.556152,0.201660,0.259277,201.458008,-250.137405,107.839691
-0.148682,1.047852,1.624023,248.175568,-250.137405,100.122139
1.984314,0.922852,1.626221,19.312977,-250.137405,193.251907
1.984314,1.380859,1.984314,-250.137405,18.641222,248.175568
1.984314,-0.885742,1.984314,-229.862595,166.473282,248.175568
1.984314,-1.750244,1.984314,-103.877861,53.854961,124.725189
1.984314,-0.616455,-1.303711,-50.503819,-250.137405,-250.137405
1.933105,1.611572,0.606201,232.366409,35.442749,-250.137405
-0.434570,1.984314,0.540283,248.175568,248.175568,-204.480911
0.286865,1.634033,-0.418457,246.229004,248.175568,248.175568
1.470947,1.984314,0.105957,-22.763359,31.801527,239.259537
1.979980,1.951172,0.810547,-161.885498,-202.404587,-12.587787
1.984314,1.023438,1.034180,-237.511444,-154.931305,-56.038166
1.984314,0.593750,1.246582,-177.015274,-136.893127,-67.022903
1.984314,0.178711,1.384521,-88.511452,-33.267174,-66.145035
1.984314,0.041260,1.266357,17.984734,50.564884,-46.717556
1.984314,0.048340,1.166016,88.541985,135.496185,-50.977100
1.572510,0.147705,0.957764,108.259544,189.854965,-78.618324
1.035156,0.314941,0.628906,98.709923,194.717560,-108.396950
0.567871,0.534424,0.240479,59.213741,168.022903,-137.877869
0.065430,0.604980,-0.177490,-6.992366,137.267181,-142.435120
-0.334717,0.335449,-0.408936,-78.625954,123.328247,-115.022903
-0.647217,0.000977,-0.465820,-144.091599,100.923668,-81.129768
-0.773682,-0.239258,-0.494873,-165.839691,59.793892,-61.137405
-0.731201,-0.514893,-0.344971,-157.931305,5.282443,-56.793892
-0.606689,-0.719238,-0.396240,-141.870224,-23.977098,-50.893131
-0.582031,-0.909424,-0.586914,-124.603050,-8.816793,-25.908398
-0.689453,-0.942871,-0.806396,-103.229004,23.091602,10.656488
-1.017822,-0.823975,-0.735107,-56.404579,68.938934,45.274811
-1.368652,-0.631348,-0.972900,8.480916,49.198475,68.671753
-1.597168,-0.602051,-1.311768,44.557251,-34.541985,77.358780
-1.601563,-0.736328,-1.822510,42.664124,-127.030533,89.343513
-1.630371,-0.794434,-1.661865,62.396946,-190.076340,121.702293
-1.341064,-0.008545,-0.788574,177.893127,-250.137405,138.175568
-0.510254,0.980225,1.087158,248.175568,-250.137405,129.664124
1.335205,0.875244,1.833008,163.755722,-250.137405,155.328247
1.984314,0.928955,1.984314,-200.717560,-61.404579,248.175568
1.984314,-0.204834,1.984314,-250.137405,97.328247,248.175568
1.984314,-2.000000,1.984314,-156.427475,7.633588,236.045807
1.984314,-0.253662,-2.000000,-61.641220,-250.137405,-250.137405
1.984314,1.984314,0.764893,144.870224,66.015266,-250.137405
-0.169678,1.984314,1.740967,248.175568,248.175568,-250.137405
-0.885498,1.667725,-0.887451,248.175568,248.175568,248.175568
-0.116211,1.984314,-0.573730,-85.702293,-100.885498,248.175568
1.367432,1.819092,1.028564,-179.076340,-250.137405,35.549618
1.984314,0.996582,1.304443,-250.137405,-250.137405,-53.412212
1.984314,0.542725,1.155273,-239.290070,-240.190842,-81.725189
1.984314,-0.055664,1.571045,-139.809158,-117.877861,-86.404579
1.984314,-0.428223,1.655762,-21.465649,82.702293,-57.732826
1.961670,-0.379883,1.507813,63.259541,188.908401,-43.984734
1.616943,-0.075439,1.171631,104.083969,211.091599,-73.328247
1.263428,0.224365,0.653809,111.519081,197.412216,-118.190842
0.938477,0.441162,0.108398,53.251907,177.061066,-162.190842
0.475586,0.562500,-0.227539,-9.427481,174.801529,-178.992371
0.098145,0.524658,-0.463623,-61.618320,168.419846,-161.770996
-0.179932,0.348389,-0.706787,-122.656487,141.770996,-137.954193
-0.318115,0.042969,-0.491699,-162.160309,116.374046,-124.465652
-0.342529,-0.279785,-0.677490,-174.137405,84.809158,-120.770996
-0.373291,-0.674805,-1.225342,-195.641220,58.167938,-112.687019
-0.642822,-1.020996,-1.319092,-209.801529,95.427483,-83.106873
-1.130859,-1.210938,-1.509521,-174.900757,184.022903,-25.923664
-1.820313,-1.256348,-1.652832,-111.145035,239.358780,44.480915
-2.000000,-1.184326,-2.000000,-72.221375,169.854965,100.969467
-2.000000,-1.192383,-2.000000,-41.396946,-16.809160,139.412216
-2.000000,-1.158203,-2.000000,-25.687023,-250.137405,153.351151
-1.930664,-0.984131,-2.000000,57.625954,-250.137405,161.351151
-1.819824,0.044189,-0.279785,248.175568,-250.137405,154.992371
-0.311035,1.508301,1.984314,248.175568,-250.137405,158.389313
1.984314,-0.143066,1.984314,5.702290,-250.137405,248.175568
1.984314,1.984314,1.984314,-250.137405,-68.297707,248.175568
1.984314,-2.000000,0.710205,-250.137405,-250.137405,248.175568
1.984314,-0.136963,-0.025146,-75.977097,-250.137405,-246.984726
1.984314,1.984314,1.691895,91.091606,248.175568,-250.137405
0.172363,1.144775,1.984314,248.175568,248.175568,-250.137405
-2.000000,-0.582275,-1.039551,153.480911,248.175568,248.175568
-2.000000,1.984314,-2.000000,-42.564884,-187.160309,248.175568
0.532715,1.984314,1.536865,-92.633591,-250.137405,-0.587786
1.984314,1.012207,1.910156,-250.137405,-250.137405,-49.015266
1.984314,1.412354,1.612549,-250.137405,-222.770996,-23.679390
1.984314,0.401367,1.613281,-217.816788,-91.694656,-52.709923
1.984314,-0.251953,1.984314,-33.236641,188.961838,-89.992363
1.727783,-0.531738,1.312988,115.213737,248.175568,-107.312981
0.978516,-0.035645,0.851807,241.366409,248.175568,-107.580154
0.617432,0.496094,0.029297,248.175568,244.167938,-113.427483
0.257813,0.803467,-0.643311,154.618317,199.648849,-124.748093
-0.164307,0.715576,-0.963379,-27.198473,164.748093,-133.534348
-0.475830,0.366455,-0.860352,-186.061066,121.992363,-134.961838
-0.544434,-0.203857,-0.245605,-250.137405,44.961834,-125.961830
-0.310791,-0.579590,-0.147461,-249.709930,-6.603054,-117.007637
-0.128662,-0.754639,-0.863037,-215.603058,12.442748,-115.625954
-0.332275,-0.977783,-1.543945,-183.801529,113.748093,-100.175575
-0.903564,-1.260254,-2.000000,-143.183212,248.175568,-41.557251
-1.942871,-1.726807,-2.000000,-148.969467,248.175568,73.488548
-2.000000,-1.741699,-2.000000,-130.725189,248.175568,193.160309
-2.000000,-1.064941,-2.000000,-121.328247,7.679389,227.564880
-2.000000,-0.683350,-2.000000,-63.137405,-250.137405,149.641220
-2.000000,-1.259766,-1.804199,116.335876,-250.137405,91.877861
-0.964355,0.069092,0.080566,248.175568,-250.137405,53.984734
1.397461,1.789063,1.984314,248.175568,-250.137405,110.412216
1.984314,1.421143,1.984314,-39.175571,-250.137405,248.175568
1.984314,0.317627,1.984314,-250.137405,-35.053436,248.175568
1.984314,-2.000000,1.984314,-250.137405,-250.137405,248.175568
1.984314,0.512695,-1.135010,86.969467,30.809160,-250.137405
1.984314,1.984314,1.144043,94.290077,248.175568,-250.137405
-0.538086,-0.247070,1.984314,248.175568,248.175568,-250.137405
-2.000000,-0.346191,-1.678711,-15.687023,248.175568,248.175568
-2.000000,1.984314,-2.000000,3.106870,-250.137405,248.175568
0.612305,1.984314,1.111572,16.267176,-250.137405,-19.167938
1.984314,0.575195,1.765137,-250.137405,-250.137405,-77.961830
1.984314,1.544922,1.984314,-250.137405,-215.396942,-139.305344
1.984314,0.088623,1.967285,-240.427475,4.580153,-138.259537
1.984314,-0.848389,1.984314,16.625954,248.175568,-81.671753
1.199463,-0.557617,1.465576,174.305344,248.175568,-78.969467
0.117920,0.104492,0.304199,248.175568,248.175568,-98.366409
-0.529785,0.318604,-0.570312,189.732819,248.175568,-108.412216
-0.854736,0.402344,-1.020508,-2.610687,156.664124,-100.633591
-0.631348,0.515625,-0.838867,-157.969467,61.740459,-112.396950
-0.174805,0.033691,-0.535889,-243.206100,-27.679390,-131.534348
0.209961,-0.573975,-0.737549,-250.137405,-52.961834,-124.748093
0.135986,-1.146973,-1.023193,-250.137405,19.656488,-102.007637
-0.326172,-1.475342,-1.366211,-218.480911,180.381683,-51.580154
-0.994385,-1.450439,-2.000000,-139.236649,248.175568,27.473282
-1.806641,-1.172607,-2.000000,-74.381676,248.175568,128.473282
-2.000000,-0.527588,-2.000000,-16.541985,214.129776,196.809158
-1.958008,0.211914,-2.000000,32.656490,-146.297714,160.374039
-1.577637,0.245117,-2.000000,57.480915,-250.137405,81.954201
-1.524414,-0.354980,-1.665527,118.290077,-250.137405,59.656490
-0.473145,0.248291,0.512451,248.175568,-250.137405,80.213737
1.984314,1.165039,1.984314,248.175568,-250.137405,175.419846
1.984314,1.280518,1.984314,-250.137405,-250.137405,248.175568
1.984314,0.155762,1.984314,-250.137405,44.900764,248.175568
1.984314,-2.000000,1.761475,-171.954193,-250.137405,173.343506
1.984314,0.440430,1.119873,65.740456,69.503815,-250.137405
1.465088,1.984314,1.984314,248.175568,248.175568,-250.137405
-2.000000,0.378174,-0.117188,248.175568,248.175568,12.580153
-2.000000,-0.090820,-0.657715,-49.366413,188.358780,248.175568
-0.205322,1.974609,0.499268,141.381683,-250.137405,145.732819
1.569336,1.471191,1.570313,-27.129770,-250.137405,-29.366413
1.984314,1.296143,1.642090,-200.641220,-100.702293,14.458015
1.984314,1.250244,1.003906,-165.969467,-121.763359,-23.748091
1.984314,0.418945,1.397461,-95.793892,1.801527,-57.366413
1.239502,-0.159912,1.514160,-7.488550,122.900764,-37.114502
0.908203,-0.145264,1.370605,69.648857,85.129768,-8.610687
1.200928,0.228027,1.248291,67.244278,48.396946,-11.167939
1.449707,0.393799,1.058838,6.290076,71.671753,-39.809162
1.224121,0.399658,0.747314,-48.702290,86.938934,-89.015266
0.746582,0.214111,0.305176,-98.190842,90.244278,-119.618324
0.303711,0.106445,0.247070,-116.259544,108.595421,-104.000000
0.054443,0.063477,0.264648,-115.687019,122.519081,-67.496185
0.038330,0.060059,0.382813,-107.030533,106.274811,-44.992367
0.249023,0.128662,0.360840,-82.320610,84.870232,-53.015266
0.446533,0.114502,0.066162,-73.145035,91.694656,-70.259544
0.358398,0.015381,-0.614502,-95.740456,110.175575,-82.671753
-0.012451,-0.264893,-1.094482,-140.053436,124.519081,-83.549622
-0.493652,-0.656494,-1.132324,-166.557251,148.885498,-65.106873
-0.890869,-0.906494,-1.025635,-144.412216,154.809158,-30.625954
-1.130859,-0.966309,-0.882568,-59.793892,123.832062,21.816793
-1.008057,-0.492432,-1.272217,20.961832,48.969467,28.984734
-1.044434,-0.254883,-1.838135,59.839695,-23.564886,12.778625
-1.254883,-0.239746,-2.000000,59.587788,-53.045803,36.137405
-1.356934,-0.198486,-2.000000,25.091602,-92.213737,87.435112
-1.507080,-0.024170,-2.000000,11.183207,-156.587784,138.648849
-1.547119,0.288574,-2.000000,49.832062,-250.137405,160.847336
-1.494873,0.333252,0.495605,248.175568,-250.137405,141.068695
-0.095947,1.035400,1.984314,248.175568,-250.137405,101.671753
1.984314,0.430664,1.984314,40.274811,-250.137405,238.351151
1.984314,0.578369,1.984314,-250.137405,248.175568,248.175568
1.984314,-2.000000,1.984314,-250.137405,-250.137405,248.175568
1.984314,0.256104,-1.234619,-113.152672,-250.137405,-242.259537
1.984314,1.984314,1.901367,54.763359,248.175568,-250.137405
-0.613037,0.666260,0.815430,248.175568,248.175568,-250.137405
-2.000000,-1.675293,-0.947998,83.603050,248.175568,248.175568
-0.256592,1.923584,0.485352,212.916031,-250.137405,248.175568
1.478271,1.984314,1.020020,42.580154,-250.137405,-12.106871
1.984314,1.255371,1.684570,-158.335876,-148.274811,13.870229
1.984314,1.510742,1.234131,-197.251907,-65.427483,-41.664124
1.930420,0.378906,1.452637,-148.076340,11.198473,-117.259544
1.141357,-0.396484,1.543701,-62.595421,61.442749,-82.961830
1.105225,-0.322510,1.431152,50.465649,46.793892,-28.679390
1.550781,0.270264,1.298096,110.656487,86.160309,-26.076336
1.556396,0.553711,0.827637,112.786263,124.984734,-71.763359
1.050293,0.347656,0.474365,15.503817,150.916031,-105.351143
0.397949,0.149902,-0.140137,-92.847328,133.465652,-125.442749
-0.114990,-0.001953,-0.113770,-153.061066,123.053436,-130.274811
-0.468750,-0.188965,0.197754,-146.709930,112.007637,-95.633591
-0.506348,-0.204590,0.292725,-103.992363,65.038170,-60.725189
-0.199219,-0.024170,0.245117,-52.083969,22.832062,-59.717556
0.088135,0.033447,-0.245117,-29.908398,12.473283,-64.396950
0.128174,-0.061523,-0.755371,-49.885498,34.328243,-58.022900
-0.171875,-0.273193,-1.000977,-77.992363,68.099236,-47.419846
-0.561768,-0.547852,-1.141357,-93.022903,78.236641,-32.106869
-0.980469,-0.787842,-0.726074,-67.595421,88.755722,-5.580153
-1.259033,-0.664307,-0.688477,-3.183206,40.709923,22.633587
-1.159912,-0.385742,-1.330811,36.740459,-82.412216,30.916031
-0.923096,-0.407471,-1.866943,39.206108,-169.251907,34.908398
-0.805176,-0.489502,-2.000000,48.770992,-195.213745,62.427483
-0.819824,-0.289551,-1.781494,87.748093,-214.656494,92.664124
-0.870361,0.028564,0.710937,246.992371,-250.137405,104.633591
-0.018066,0.856934,1.984314,248.175568,-250.137405,98.801529
1.984314,1.491943,1.984314,248.175568,-216.053436,141.022903
1.984314,1.984314,1.984314,96.114502,80.053436,201.374039
1.984314,1.877686,1.984314,-250.137405,217.274811,103.198471
1.984314,-2.000000,1.984314,-250.137405,99.725189,162.610687
1.984314,-1.624512,-0.101807,-161.908401,-250.137405,-20.358778
1.984314,0.429687,0.820801,40.435116,-148.793900,-250.137405
0.366211,1.287598,1.984314,248.175568,248.175568,-250.137405
-0.972656,0.586914,0.580566,248.175568,116.312981,36.984734
0.962402,1.840332,0.616943,123.290077,45.442749,241.320618
1.984314,1.822510,-0.198730,-108.618324,-6.877862,94.931297
1.984314,1.431885,0.371094,-204.045807,-159.625961,-41.664124
1.984314,0.926514,0.848145,-213.946564,-69.458015,-129.595413
1.660156,0.215088,1.134521,-123.328247,0.854962,-111.160309
1.036621,-0.253662,1.509521,6.435114,19.534351,-20.282442
1.149170,0.176025,1.389648,108.366409,31.236641,30.519083
1.406494,0.517090,1.265137,125.160309,34.778625,16.961832
1.473389,0.718506,1.212158,111.656487,58.557251,-12.435115
1.232910,0.670410,1.003418,62.083969,83.145035,-59.000000
0.875977,0.448242,0.838867,-13.641221,72.083969,-102.038170
0.604980,0.179199,0.605469,-66.610687,46.816795,-121.244278
0.487549,-0.102295,0.572266,-91.229004,61.717556,-102.351143
0.393555,-0.077393,0.552246,-74.992363,91.610687,-74.091606
0.300049,0.182617,0.633301,-33.564884,110.847328,-69.969467
0.149902,0.275391,0.700928,-15.190840,111.931297,-79.030533
0.074219,0.383057,0.643066,-15.305344,106.916031,-74.656487
0.087402,0.487061,0.047852,-43.503819,94.732826,-78.106873
-0.016846,0.165283,-0.496582,-108.320610,89.618324,-86.633591
-0.277832,-0.391113,-1.058594,-171.519089,86.198471,-82.778625
-0.599609,-0.788330,-1.054199,-188.152664,100.603050,-62.587788
-0.930908,-0.860352,-0.986084,-153.175568,129.908401,-26.083969
-1.209229,-0.788086,-1.346680,-79.404579,120.083969,13.793893
-1.281250,-0.646973,-2.000000,-45.442749,62.251907,35.847328
-1.428711,-0.710449,-2.000000,-59.259541,0.480916,56.687023
-1.478271,-0.852051,-2.000000,-42.862595,-89.595421,106.954201
-1.472656,-0.823242,-2.000000,-21.442749,-213.221375,145.755722
-1.757324,-0.794434,-1.395996,110.022903,-250.137405,168.045807
-0.822021,0.082031,1.984314,248.175568,-250.137405,153.793900
1.984314,1.921631,1.984314,248.175568,-250.137405,117.877861
1.984314,1.984314,1.984314,124.893127,-177.419846,248.175568
1.984314,1.984314,1.984314,-231.007629,248.175568,248.175568
1.984314,-0.886230,1.804443,-245.450378,147.824432,195.038162
1.984314,-0.224121,-1.015869,-89.236641,-244.274811,-250.137405
-0.585449,0.858398,1.984314,205.106873,248.175568,-250.137405
-2.000000,-0.930908,-1.166016,248.175568,248.175568,73.541985
-0.994385,0.406738,-0.061523,112.969467,-250.137405,248.175568
1.984314,1.984314,1.971680,92.870232,-250.137405,57.488548
1.984314,1.512207,1.924072,-122.572517,-163.847336,12.137404
1.984314,1.423096,1.350098,-131.793900,10.106871,-7.404580
1.984314,0.548828,1.337158,-72.908394,14.564885,-39.419846
1.212158,-0.088623,1.377441,24.839695,33.931297,-30.381680
0.943115,0.044922,1.388916,143.045807,39.816795,9.541985
1.254883,0.518311,1.352051,163.183212,45.412212,23.832062
1.424561,0.716309,0.973145,100.587784,73.061066,-0.343511
1.192139,0.705322,0.484375,-1.946565,64.725189,-59.511452
0.730469,0.510010,0.247070,-80.587784,56.519085,-118.511452
0.226318,0.091797,0.102295,-110.053436,56.099236,-118.961830
-0.130127,-0.247070,0.068604,-110.786263,68.503815,-67.374046
-0.276611,-0.261475,0.145020,-83.580154,73.419846,-24.938931
-0.274170,-0.031006,0.242920,-40.870228,53.580154,-22.045801
-0.225586,0.110596,0.082764,-3.816794,31.717558,-33.160305
-0.217285,0.168457,-0.187256,2.755725,34.893131,-32.175571
-0.297119,0.055908,-0.442627,-18.015266,35.618320,-28.992367
-0.432617,-0.229492,-0.489258,-27.564886,27.496183,-24.419847
-0.503418,-0.422852,-0.244141,-11.122137,24.251909,-15.778625
-0.504639,-0.455566,-0.422119,9.885496,5.244275,3.129771
-0.577393,-0.580566,-0.703125,14.145039,12.580153,29.717558
-0.817627,-0.720703,-0.954590,27.885496,50.992367,64.244278
-1.040527,-0.696045,-1.469238,49.290077,33.229008,98.862595
-1.082764,-0.466553,-1.934570,69.885498,-67.251907,114.984734
-0.992432,-0.283691,-2.000000,91.061066,-168.404587,116.442749
-1.119385,-0.216553,-0.811279,133.671753,-239.656494,121.099236
-0.648926,0.408691,0.801025,244.977097,-250.137405,140.198471
0.765381,1.345947,1.984314,221.175568,-250.137405,129.641220
1.984314,1.542969,1.916016,-84.732826,-90.488548,219.083969
1.984314,0.885254,1.984314,-250.137405,93.213737,248.175568
1.984314,-2.000000,1.984314,-250.137405,95.297707,248.175568
1.984314,-2.000000,0.598145,-95.106873,-250.137405,-0.748092
1.984314,0.694092,-0.336182,42.480915,-250.137405,-250.137405
1.426758,1.984314,1.984314,248.175568,248.175568,-250.137405
-1.161133,1.177734,-0.094727,248.175568,248.175568,123.381676
0.062988,1.906982,-0.354004,53.312977,129.717560,248.175568
1.752686,1.984314,0.130859,-109.534348,-194.870224,126.595421
1.984314,1.428223,1.108398,-244.351151,-203.129776,-45.320610
1.984314,0.692383,1.133545,-250.137405,-185.732819,-101.648857
1.984314,-0.238037,1.128174,-154.938934,-160.557251,-76.213737
1.739746,-0.500244,1.471436,-32.793892,-22.832062,-22.343512
1.819824,-0.038330,1.448242,54.320610,42.885498,19.526718
1.900879,0.336182,1.397217,84.160309,82.732826,12.305344
1.630615,0.501221,0.943604,60.366413,101.183205,-27.961832
1.135010,0.580322,0.459961,16.877863,98.015266,-93.374046
0.527588,0.381836,0.039551,-40.358780,77.580154,-142.160309
0.005371,-0.004639,-0.032715,-73.450378,67.885498,-123.610687
-0.186523,-0.098389,0.236084,-68.809158,83.893127,-58.351147
-0.075684,-0.009277,0.469482,-49.076336,79.374046,-23.206106
0.050537,0.141113,0.394043,-27.595419,66.038170,-37.175571
-0.061279,0.118896,0.102295,-19.015266,71.297707,-55.076336
-0.334961,-0.072021,-0.273193,-30.450382,77.251907,-44.458015
-0.596436,-0.335938,-0.627197,-49.175571,71.312981,-18.030535
-0.780762,-0.561523,-0.572998,-49.847328,66.625954,8.984733
-0.827637,-0.543213,-0.477051,-27.389313,28.786259,25.641222
-0.712646,-0.321777,-0.174561,20.610687,-28.748091,27.961832
-0.536621,-0.292725,-0.191406,36.183205,-50.847328,23.320610
-0.612305,-0.461182,-0.549561,18.755726,-17.961832,39.389313
-0.789551,-0.366943,-0.888916,9.366412,7.091603,60.259541
-0.855713,-0.169922,-1.592529,14.847328,-16.893129,62.862595
-0.927979,-0.184570,-1.919922,32.618320,-88.015266,67.763359
-0.971436,-0.070068,-1.362061,85.122139,-163.641220,81.748093
-0.861084,0.168457,0.487061,204.236649,-244.564880,78.969467
-0.099854,0.521240,0.759033,248.175568,-250.137405,75.458015
0.938232,1.294678,1.221436,138.312973,-179.763351,139.114502
1.984314,1.426758,1.971436,-43.541985,6.809160,210.984726
1.984314,0.785645,1.984314,-250.137405,79.404579,219.870224
1.984314,-2.000000,1.984314,-250.137405,-50.396946,248.175568
1.984314,-2.000000,-0.251221,-144.229004,-250.137405,22.862595
1.984314,1.060303,-0.091553,31.954199,-250.137405,-250.137405
1.984314,1.984314,1.984314,248.175568,248.175568,-250.137405
-0.873291,0.230957,0.440674,248.175568,248.175568,105.671753
-0.248779,1.607910,-0.506592,117.656487,242.595413,248.175568
1.246094,1.984314,0.058105,-12.412213,-250.137405,202.381683
1.984314,1.567139,1.341797,-171.618317,-250.137405,7.709924
1.984314,0.963379,0.725586,-211.793900,-186.793900,-95.671753
1.984314,-0.080811,0.806152,-146.748093,-145.709930,-99.709923
1.517334,-0.630615,1.236328,-64.839691,-48.702290,-32.938931
1.606934,-0.419678,1.442871,23.267176,6.465649,18.496183
1.907715,0.063965,1.135010,52.442749,37.679390,-0.496183
1.718018,0.444580,0.767578,47.190838,84.374046,-54.045803
1.177246,0.546631,0.402344,25.167938,106.732826,-100.740456
0.661621,0.441895,0.285400,-14.419847,99.137405,-118.725189
0.330322,0.250244,0.124512,-45.190838,84.671753,-101.732826
0.171875,0.068115,0.138672,-59.603054,87.282440,-72.282440
0.123779,0.102051,0.211182,-38.816795,98.122139,-54.435116
0.112305,0.277344,0.307129,-9.374045,97.419846,-59.496181
0.121582,0.365479,0.212646,-2.030534,82.312981,-68.213737
0.123291,0.408447,-0.104736,-24.358778,76.091606,-70.427483
-0.006592,0.259277,-0.569092,-62.435116,69.839691,-73.816795
-0.277100,-0.055420,-0.531250,-82.404579,79.809158,-67.519081
-0.547119,-0.405518,-0.357178,-76.954201,75.465652,-46.854961
-0.639893,-0.615967,-0.328369,-58.145039,48.992367,-26.229008
-0.571045,-0.804687,-0.597900,-46.763359,11.458015,-10.633588
-0.556885,-0.949951,-0.739014,-34.732826,16.541985,6.893130
-0.707520,-0.818115,-0.812744,2.618321,43.801525,29.946566
-0.880127,-0.503906,-0.967529,49.167938,15.458015,44.351147
-0.904785,-0.325195,-1.171143,63.992367,-79.648857,49.190838
-0.702393,-0.074951,-1.075684,65.290077,-156.030533,51.335876
-0.455078,0.100830,-1.005371,59.625954,-185.267181,50.931297
-0.260010,0.208496,0.125000,108.015266,-172.519089,51.793892
0.172119,0.849609,0.865234,166.328247,-132.893127,44.045803
0.731201,1.348633,1.453613,99.557251,-79.732826,81.786263
1.744629,1.096680,1.761963,-89.580154,-20.427481,138.763351
1.984314,0.909180,1.984314,-248.198471,74.045799,141.511444
1.984314,-0.463135,1.984314,-217.694656,31.167938,218.099243
1.984314,-1.072266,1.834473,-69.847328,-223.816788,106.732826
1.984314,0.675781,-1.166260,-22.549618,-250.137405,-250.137405
1.984314,1.780762,1.984314,175.740463,248.175568,-250.137405
-0.843018,0.671631,0.909424,248.175568,248.175568,-43.541985
-0.885498,0.572510,-0.268555,8.557252,223.557251,248.175568
0.521973,1.556152,0.710205,-33.633587,-146.740463,92.167938
1.442139,1.188477,1.153076,-92.213737,-250.137405,-87.473282
1.984314,0.676270,1.273438,-158.641220,-225.908401,-80.687019
1.984314,0.344727,1.641602,-44.419846,-88.893127,-61.923664
1.968018,0.189453,0.991211,56.832062,30.229008,-2.557252
1.708740,0.330322,1.237793,96.427483,37.671757,26.213741
1.416016,0.380859,1.296631,96.564888,53.969467,-2.358779
1.393066,0.552734,1.368896,69.412216,27.969465,-38.847328
1.543457,0.686035,1.281250,18.885496,34.557251,-72.305344
1.471436,0.639160,1.086426,-6.778626,74.908394,-95.503815
1.158691,0.529785,0.786377,-2.740458,113.793892,-110.412216
0.776855,0.449463,0.327881,2.839695,130.694656,-121.656487
0.461914,0.379395,0.083496,-16.061069,145.190842,-123.679390
0.114990,0.216309,-0.174805,-63.648853,149.152664,-114.038170
-0.178223,-0.063721,-0.509766,-123.312981,126.938934,-99.419846
-0.398926,-0.446533,-0.322021,-150.213745,104.679390,-78.129768
-0.436279,-0.555664,-0.269775,-111.900764,84.839691,-64.984734
-0.406494,-0.662598,-0.566895,-73.473282,64.251907,-61.137405
-0.494873,-0.947510,-1.001709,-74.427483,58.274811,-43.824429
-0.810547,-1.188477,-1.223633,-83.778625,120.458015,-2.450382
-1.404053,-1.257813,-1.378418,-87.633591,199.809158,47.053436
-1.965088,-1.028320,-1.530029,-64.969467,163.671753,106.725189
-1.943359,-0.421875,-1.907227,-13.740458,-34.076336,130.664124
-1.429199,-0.114258,-2.000000,28.435114,-250.137405,103.137405
-1.203125,-0.150879,-2.000000,69.488548,-250.137405,95.801529
-1.257324,0.140381,-1.104980,134.381683,-250.137405,124.412216
-0.642822,1.358398,1.032471,248.175568,-250.137405,154.610687
1.620361,1.616699,1.984314,231.671753,-250.137405,164.717560
1.984314,1.375732,1.984314,-83.931297,-137.450378,248.175568
1.984314,1.329834,1.984314,-250.137405,216.839691,248.175568
1.984314,-2.000000,1.984314,-203.160309,60.702290,247.541992
1.984314,-0.374512,-2.000000,-127.618324,-250.137405,-250.137405
1.984314,1.805176,1.826904,131.702286,200.114502,-250.137405
-1.332520,0.778809,1.984314,248.175568,248.175568,-250.137405
-2.000000,-0.305664,-1.063232,121.389313,248.175568,248.175568
0.198486,1.984314,0.712402,42.259541,-184.061066,248.175568
1.984314,1.915039,1.222412,-102.305344,-250.137405,86.328247
1.984314,1.431641,1.076416,-190.267181,-232.557251,4.251908
1.984314,1.010742,1.063232,-145.190842,-125.977097,-121.442749
1.723389,-0.099854,1.199951,-67.809158,19.412214,-93.709923
1.053223,-0.447266,1.519531,35.076336,72.687019,9.381680
1.385498,0.134033,1.638916,120.236641,41.458015,23.305344
1.859131,0.428223,1.234619,112.809158,52.198475,-17.923664
1.832520,0.634766,0.604248,33.916031,92.969467,-68.778625
1.273438,0.522705,0.329102,-49.274811,107.854965,-130.198471
0.632812,0.090088,0.229980,-90.977097,108.312981,-139.717560
0.177002,-0.120117,0.021240,-87.213737,110.190842,-101.473282
-0.006348,-0.096924,0.031738,-58.290077,107.748093,-60.053436
0.016846,0.062988,0.311768,-19.557251,100.893127,-40.076336
0.118652,0.281250,0.248047,9.671756,86.351143,-46.053436
0.104736,0.325439,-0.073486,1.625954,94.824425,-54.129772
-0.135986,0.141602,-0.465088,-51.244274,111.885498,-55.297710
-0.479736,-0.210937,-0.720459,-101.374046,117.404579,-47.190838
-0.717041,-0.453613,-0.785645,-115.687019,106.229004,-28.015266
-0.770752,-0.552490,-0.796143,-96.274811,70.839691,-7.229008
-0.702881,-0.534912,-0.680908,-54.106869,21.442749,4.190840
-0.683594,-0.579590,-0.996338,-24.274809,-0.618321,7.183206
-0.945557,-0.688232,-1.364990,-20.450382,26.267176,33.480915
-1.238281,-0.704346,-1.938232,-35.305344,30.786259,77.534348
-1.398926,-0.636963,-2.000000,-44.305344,-34.961834,118.038170
-1.322998,-0.579590,-2.000000,-31.160305,-186.076340,129.259537
-1.166992,-0.459717,-2.000000,19.503817,-250.137405,110.740456
-1.099365,-0.254150,1.738281,247.022903,-250.137405,113.091606
0.425293,1.552979,1.984314,248.175568,-250.137405,93.435112
1.984314,1.658691,1.984314,84.221375,-195.389313,245.725189
1.984314,1.712891,1.984314,-166.992371,248.175568,248.175568
1.984314,-1.130127,1.984314,-250.137405,248.175568,179.335876
1.984314,-1.621582,-1.291016,-156.702286,-250.137405,-1.068702
1.984314,1.840820,-0.071045,55.755726,-250.137405,-250.137405
1.129883,1.984314,1.984314,248.175568,248.175568,-250.137405
-1.645264,-0.748291,-0.205322,248.175568,248.175568,198.541992
-1.002686,1.497803,-0.783691,-3.748092,-11.633588,248.175568
1.291748,1.984314,0.757812,-49.625954,-250.137405,168.625961
1.984314,1.776123,1.309814,-201.015274,-250.137405,28.900763
1.984314,1.181152,0.726562,-208.053436,-177.022903,-66.389313
1.984314,-0.137451,1.051514,-128.030533,-94.824425,-63.671757
1.234375,-0.864990,1.534424,4.160306,38.908398,-3.335878
1.167725,-0.354004,1.659424,134.358780,43.610687,-0.465649
1.543213,0.297363,1.288086,158.824432,49.091602,-20.297710
1.667236,0.847412,0.845215,123.809158,88.732826,-49.145039
1.311768,0.883057,0.557373,45.954197,122.702293,-95.122139
0.753174,0.500000,0.326416,-22.992367,115.916031,-117.000000
0.312744,-0.025391,0.203613,-67.015266,118.129768,-113.717560
-0.012939,-0.514893,0.215576,-72.534348,124.129768,-76.206108
-0.096924,-0.504150,0.157959,-48.526718,122.702293,-45.366413
-0.106445,-0.177246,-0.115234,-25.389313,107.969467,-48.244274
-0.225586,-0.065186,-0.295410,-25.748091,88.893127,-50.893131
-0.359619,-0.039307,-0.407471,-36.954197,69.358780,-41.908398
-0.451660,-0.011963,-0.539307,-46.465649,52.900764,-39.213741
-0.562500,-0.185791,-0.932617,-59.885498,33.793892,-33.358780
-0.715820,-0.464355,-0.798584,-63.320610,36.190838,-13.977099
-0.809326,-0.553955,-1.023193,-46.946564,37.832062,10.564885
-0.980225,-0.618652,-1.289307,-43.618320,50.816795,30.236641
-1.309570,-0.686768,-1.455811,-33.374046,49.916031,51.992367
-1.523193,-0.619385,-1.773438,-3.374046,-13.633588,76.992363
-1.592285,-0.363770,-1.775879,43.770992,-131.893127,93.725189
-1.400391,0.192139,-0.531250,164.763351,-250.137405,96.839691
-0.497803,0.895996,-0.014648,248.175568,-250.137405,84.290077
0.895508,0.760986,1.984314,182.282440,-250.137405,94.221375
1.984314,0.775635,1.984314,-133.099243,-97.312981,234.496185
1.984314,0.323730,1.984314,-250.137405,150.984726,247.221375
1.984314,-2.000000,1.984314,-214.053436,-60.366413,248.175568
1.984314,-1.321777,-2.000000,-164.709930,-250.137405,-50.312977
1.984314,1.984314,0.062500,89.656487,-208.137405,-250.137405
1.650635,1.984314,1.984314,248.175568,248.175568,-250.137405
-1.875244,0.539551,-1.104492,248.175568,248.175568,223.877869
-1.096924,1.227051,0.071045,-101.541985,248.175568,248.175568
0.299072,1.984314,0.308838,-10.923664,-250.137405,206.664124
1.984314,1.448975,1.277832,-88.786263,-250.137405,-63.145039
1.984314,1.267090,1.049561,-200.534348,-250.137405,-120.740456
1.984314,0.555664,1.052734,-158.137405,-196.725189,-134.519089
1.984314,-0.599854,1.984314,-45.572517,82.053436,-39.236641
1.377441,-0.926514,1.847656,65.854965,132.748093,25.374046
1.409424,-0.062988,1.399658,113.587784,75.412216,-19.129770
1.593018,0.718750,0.970459,117.664124,113.183205,-76.801529
1.351074,1.036377,0.451172,53.351147,170.618317,-109.541985
0.782471,0.860596,-0.202393,-50.610687,159.961838,-145.916031
0.266113,0.177002,-0.169678,-144.641220,155.251907,-151.503815
-0.049805,-0.276855,0.149414,-160.893127,173.396942,-121.496185
-0.125488,-0.199219,0.064453,-115.465652,175.419846,-96.580154
-0.089600,-0.096191,-0.430908,-86.778625,157.816788,-98.045799
-0.172852,-0.288574,-0.908936,-98.297707,140.916031,-97.389313
-0.407959,-0.567139,-1.314697,-122.221375,150.351151,-76.725189
-0.736572,-0.953369,-1.694580,-154.236649,169.908401,-38.381680
-1.177490,-1.238770,-1.500977,-158.251907,214.396942,18.221375
-1.545654,-1.175781,-1.692871,-104.862595,202.412216,70.122139
-1.754150,-0.855713,-1.838135,-13.068703,79.198471,98.786263
-1.564941,-0.316406,-2.000000,66.183205,-111.465652,91.503815
-1.277588,0.026367,-2.000000,108.610687,-230.946564,70.374046
-1.199707,-0.050781,-2.000000,69.503815,-250.137405,85.450378
-1.228760,0.080322,-2.000000,48.061069,-250.137405,133.190842
-0.944580,0.949463,1.923096,248.175568,-250.137405,142.519089
1.523926,1.306396,1.984314,248.175568,-250.137405,151.297714
1.984314,1.329102,1.984314,-103.526718,-193.366409,248.175568
1.984314,0.086914,1.984314,-250.137405,248.175568,248.175568
1.984314,-2.000000,1.984314,-94.114502,-158.511444,248.175568
1.984314,0.266113,-1.434326,1.114504,-250.137405,-250.137405
1.984314,1.984314,1.984314,212.412216,248.175568,-250.137405
-0.987793,0.907715,1.434570,248.175568,248.175568,-214.893127
-2.000000,-0.091553,-1.760986,-28.473282,248.175568,248.175568
-0.501465,1.984314,0.329346,1.603053,-250.137405,227.007629
1.251709,1.768066,0.948486,-104.061066,-250.137405,-59.534351
1.984314,0.807129,1.285645,-250.137405,-250.137405,-34.908398
1.984314,0.845703,1.476074,-188.213745,-245.839691,-16.740458
1.984314,-0.068115,1.489014,-78.083969,22.740458,-13.129771
1.217041,-0.597412,1.313232,36.748093,82.282440,9.412213
0.902832,-0.192871,1.440674,110.618324,29.954199,8.335877
1.237793,0.523193,1.343018,121.938934,13.832061,-13.641221
1.681641,1.059814,0.844482,63.091602,24.931297,-37.190838
1.766846,1.160400,0.604736,-18.687023,55.534351,-75.740456
1.329346,0.831299,0.447754,-69.244278,81.297707,-109.122139
0.877686,0.462891,0.219971,-79.755722,88.992363,-124.015266
0.613037,0.265625,0.063965,-72.015266,95.374046,-120.366409
0.500732,0.275391,-0.006104,-58.832062,104.717560,-101.038170
0.491455,0.373779,-0.172607,-54.946564,110.259544,-91.702293
0.366455,0.300537,-0.440674,-73.458015,107.671753,-99.015266
0.129150,0.045654,-0.692139,-93.541985,105.061066,-104.236641
-0.129883,-0.323242,-0.594238,-102.908394,109.503815,-90.946564
-0.307617,-0.486572,0.042969,-69.320610,107.038170,-67.000000
-0.154297,-0.380859,0.059814,-27.396946,54.022900,-54.305344
0.129639,-0.316406,-0.363770,-11.267176,51.641220,-52.740459
-0.009521,-0.478516,-0.956787,-16.709923,102.916031,-39.732826
-0.534912,-0.745117,-1.580811,-30.709923,163.488556,-11.328244
-1.297852,-1.027588,-1.587646,-40.213741,248.175568,41.389313
-2.000000,-1.173340,-1.705566,-38.175571,240.427475,106.076332
-2.000000,-0.849121,-2.000000,-15.572519,31.450382,151.648849
-2.000000,-0.343994,-2.000000,-5.893130,-195.793900,153.770996
-2.000000,-0.739746,-2.000000,55.160305,-250.137405,158.442749
-2.000000,0.073486,-0.284180,223.984726,-250.137405,176.381683
-0.228271,1.702881,1.984314,248.175568,-250.137405,135.068695
1.984314,0.835449,1.984314,-250.137405,-250.137405,248.175568
1.984314,-0.299316,1.984314,-250.137405,-250.137405,248.175568
1.984314,-2.000000,1.264893,-219.786255,-250.137405,-14.732824
1.984314,1.875732,-2.000000,-68.679390,248.175568,-250.137405
1.984314,1.984314,1.984314,248.175568,248.175568,-250.137405
-2.000000,-1.029297,-1.554443,248.175568,248.175568,163.160309
-2.000000,-0.166504,-2.000000,-250.137405,248.175568,248.175568
-1.072754,1.984314,0.017578,-32.694656,-250.137405,221.557251
1.599854,1.665283,0.923340,-15.137404,-250.137405,-148.977097
1.984314,0.035156,1.327148,-250.137405,-250.137405,-100.954201
1.984314,0.758545,1.077881,-236.717560,-250.137405,-68.038170
1.984314,-0.322021,1.426758,-74.564888,143.961838,5.396946
1.870361,-0.782959,1.640137,127.358780,248.175568,51.770992
0.514160,-0.463379,1.152832,247.969467,248.175568,47.137405
0.497803,0.259521,1.030762,248.175568,92.801529,15.732824
1.087158,0.985840,0.563477,184.954193,56.351147,-25.809160
1.386963,1.402832,0.105225,46.664124,97.603050,-82.320610
0.881836,0.922607,-0.265869,-80.091606,116.152672,-126.412216
0.218018,-0.028564,-0.391846,-165.175568,105.435112,-119.610687
-0.118408,-0.497314,0.004639,-162.679382,118.229004,-73.755722
-0.110352,-0.244141,0.195801,-97.801529,105.442749,-43.992367
0.128662,0.074707,0.225342,-60.755726,68.679390,-57.312977
0.255859,0.152344,-0.077637,-60.183205,68.977097,-70.022903
0.053955,-0.022949,-0.693604,-91.572517,96.404579,-64.954201
-0.355469,-0.407471,-0.903564,-120.557251,123.465652,-50.045803
-0.796143,-0.758545,-1.080566,-129.259537,150.335876,-17.022902
-1.172607,-0.983643,-0.944824,-110.190842,139.091599,23.564886
-1.323975,-0.951904,-1.157715,-70.725189,57.564884,44.732826
-1.343750,-0.667236,-1.240723,-21.702290,-51.099236,46.465649
-1.195313,-0.274658,-1.491211,37.488548,-146.801529,33.122139
-1.078857,-0.080322,-1.873779,52.633587,-209.572525,23.351145
-1.100830,0.109131,-1.313721,65.045799,-250.137405,42.809162
-0.790771,0.519043,0.046143,154.450378,-250.137405,56.694656
0.203369,0.906494,0.934326,199.870224,-250.137405,69.549622
1.749268,1.073730,1.969727,79.916031,-191.190842,132.900757
1.984314,1.134033,1.984314,-159.030533,-17.824427,192.832062
1.984314,-0.221191,1.984314,-250.137405,191.916031,223.267181
1.984314,-2.000000,1.984314,-76.274811,-113.954201,248.175568
1.984314,0.644775,-1.635254,-15.366412,-250.137405,-191.740463
1.984314,1.943604,1.273926,143.854965,248.175568,-250.137405
-0.934082,0.861572,1.749512,248.175568,248.175568,-225.458008
-1.581543,-0.213623,-0.462158,107.946564,213.282440,248.175568
0.676270,1.685303,0.699219,30.549618,-222.374039,191.580154
1.774414,1.443359,1.181885,-52.732826,-236.763351,-63.824429
1.984314,1.255371,1.134521,-134.282440,-148.297714,-118.465652
1.827881,0.925049,1.256104,-109.572517,-83.618324,-97.480919
1.379150,0.395020,1.431396,-55.137405,41.877861,-11.564885
0.692627,-0.104492,0.582031,-2.183206,16.503817,50.770992
1.171631,0.087891,1.246338,32.381680,-82.473282,62.106869
1.434814,0.193115,1.274170,51.007633,-13.145039,17.839695
1.451904,0.372559,1.263672,61.236641,2.358779,-3.648855
1.430176,0.530273,1.237549,66.038170,31.557251,-20.236641
1.314209,0.529053,1.064453,59.282444,59.175571,-39.053436
1.099365,0.523926,0.899414,50.709923,89.236641,-50.702290
0.856934,0.592041,0.592529,43.221375,105.496185,-63.129772
0.595703,0.510742,0.201904,16.450382,105.732826,-71.816795
0.365967,0.347900,-0.082764,-21.473282,100.793892,-69.564888
0.234131,0.266602,-0.017334,-44.809162,99.893127,-62.595421
0.172607,0.311768,0.059082,-51.374046,89.312981,-66.251907
0.105713,0.228027,0.031006,-76.251907,71.732826,-73.145035
-0.015381,-0.005127,-0.088867,-108.061066,61.129772,-67.732826
-0.127686,-0.311768,0.018799,-121.885498,58.396946,-50.076336
-0.180420,-0.489014,0.068115,-99.809158,47.824429,-32.564884
-0.156494,-0.544922,0.043701,-59.343510,29.664122,-21.129770
-0.136963,-0.546143,0.056152,-4.557252,28.770992,-8.152672
-0.228516,-0.390381,-0.330811,43.763359,38.687023,4.290076
-0.479004,-0.317383,-0.670166,57.488548,45.488548,24.854961
-0.697021,-0.241211,-0.961426,55.183205,25.045801,50.358780
-0.692383,-0.161621,-1.389893,33.366413,-35.862595,60.595421
-0.590820,-0.101807,-1.396484,29.419847,-87.129768,49.297710
-0.590088,-0.174805,-1.391357,34.885498,-134.312973,36.595421
-0.627197,-0.225586,-1.475098,32.427483,-179.198471,48.480915
-0.553223,-0.192627,-0.401367,70.206108,-225.458008,82.717560
0.134766,0.229492,0.171143,104.389313,-250.137405,92.961830
1.290039,0.978516,1.322510,56.022900,-194.083969,133.122131
1.984314,1.168945,1.984314,-156.282440,-79.099236,191.992371
1.984314,0.541504,1.984314,-215.038162,64.213737,217.740463
1.984314,-1.092041,1.984314,-135.076340,9.183207,156.282440
1.984314,-1.236572,1.984314,-8.526717,-166.244278,10.221375
1.984314,0.326660,-1.156738,34.587788,-250.137405,-250.137405
1.243652,1.176758,1.961426,195.725189,248.175568,-250.137405
-1.156982,0.434082,1.007080,248.175568,248.175568,-24.145039
-0.563477,1.099121,-0.019531,127.847328,46.587788,248.175568
1.402588,1.984314,0.549316,29.259542,-163.870224,81.618324
1.984314,1.984314,0.789307,-138.984726,-115.694656,-61.381680
1.980957,1.655029,0.989502,-193.389313,-49.229008,-100.671753
1.382568,0.669922,0.919189,-164.183212,-27.862595,-0.038168
1.095215,0.319824,0.958008,-88.175575,-69.625954,40.809162
1.302979,0.252197,1.171631,0.931298,-59.725189,32.290077
1.411133,0.229248,1.268066,67.854965,-10.511451,30.664122
1.444824,0.381348,1.204102,88.755722,27.106871,36.160305
1.483154,0.492676,0.942871,72.198471,34.267174,4.954198
1.432129,0.430664,0.897217,39.763359,43.435116,-38.343510
1.238281,0.316406,0.892334,32.145039,64.129768,-65.702293
1.007080,0.283936,0.645752,46.465649,85.908394,-73.038170
0.743408,0.215576,0.226318,49.068703,95.923668,-74.038170
0.484619,0.138672,0.135010,38.022900,105.290077,-68.916031
0.295410,0.078613,0.078857,23.259542,107.740456,-57.580154
0.159424,0.227539,-0.061279,6.404580,104.748093,-53.198475
-0.021973,0.177490,-0.148193,-21.625954,92.389313,-58.259541
-0.208008,-0.083008,-0.030029,-58.877861,68.450378,-57.847328
-0.215576,-0.298828,0.058838,-67.244278,36.244274,-52.854961
-0.041260,-0.396973,0.038086,-51.641220,13.099236,-52.633587
0.052246,-0.416504,-0.281250,-23.908398,19.946566,-51.900764
-0.147217,-0.544434,-0.467041,-6.213740,48.267174,-37.374046
-0.555908,-0.597412,-0.562012,13.610687,69.213737,-5.931298
-0.909180,-0.615723,-0.600098,26.503817,66.213737,29.717558
-1.125000,-0.654785,-0.986816,18.465649,34.183205,51.770992
-1.259277,-0.786133,-1.473877,-13.358779,-19.061069,71.809158
-1.257813,-0.845459,-2.000000,-29.839695,-69.595421,99.694656
-1.417969,-0.900391,-1.571045,1.022901,-122.595421,124.832062
-1.329834,-0.524902,-0.267578,125.030533,-250.137405,132.557251
-0.364502,0.818848,0.177246,211.404587,-250.137405,109.022903
1.316895,1.703125,1.984314,167.664124,-250.137405,132.801529
1.984314,1.721680,1.984314,-250.137405,-67.267174,248.175568
1.984314,-0.039551,1.984314,-250.137405,141.541992,248.175568
1.984314,-2.000000,1.984314,-123.824425,-34.778625,204.900757
1.984314,-0.079346,-2.000000,-97.938934,-250.137405,-250.137405
1.984314,1.984314,0.255127,51.618320,52.427483,-250.137405
-0.631592,1.627441,1.984314,248.175568,248.175568,-250.137405
-1.272949,0.298584,-0.957764,248.175568,248.175568,248.175568
0.823975,1.984314,0.697266,-28.541985,-17.786259,248.175568
1.715576,1.984314,0.753906,-116.167938,-236.190842,-24.061069
1.984314,1.015137,1.012695,-212.442749,-209.068695,-123.198471
1.970947,0.420410,1.101807,-160.793900,-178.038162,-109.679390
1.618652,-0.202881,1.050781,-92.221375,-99.839691,-44.694656
1.412842,-0.523437,1.226563,-1.061069,5.870229,27.114504
1.440186,-0.137939,1.417236,76.099236,48.664124,30.511450
1.634033,0.282959,1.333008,101.045799,65.687019,0.068702
1.730469,0.574951,0.779053,67.564888,82.969467,-38.091602
1.488770,0.665771,0.525391,11.404580,103.786263,-96.435112
1.044678,0.466553,0.305420,-24.221375,110.412216,-129.816788
0.685303,0.267578,0.144775,-33.183205,119.480919,-126.030533
0.392090,0.123779,-0.135986,-38.786259,132.007629,-109.007637
0.101074,-0.038818,-0.383545,-48.595421,138.488556,-89.534348
-0.128906,-0.178467,-0.102295,-55.343510,142.618317,-64.900764
-0.220703,-0.131348,-0.106445,-51.679390,111.259544,-48.969467
-0.192871,-0.121826,-0.043945,-52.587788,81.801529,-46.625954
-0.171143,-0.208740,-0.055908,-58.435116,74.778625,-44.381680
-0.211182,-0.344727,-0.463623,-61.931297,66.702293,-36.946564
-0.337158,-0.599365,-0.870117,-71.679390,59.839695,-21.106871
-0.565186,-0.815430,-1.067383,-66.664124,76.458015,5.458015
-0.886963,-0.800293,-1.157471,-27.167938,93.511452,43.641220
-1.225098,-0.689453,-1.390625,21.885496,60.366413,61.725189
-1.526855,-0.560547,-1.664551,49.274811,-23.862595,74.404579
-1.586670,-0.405762,-2.000000,44.190838,-132.106873,94.083969
-1.748047,-0.228516,-0.597656,87.908394,-222.175568,119.137405
-1.003662,0.873047,0.285889,245.503815,-250.137405,94.786263
0.293945,1.984314,1.984314,248.175568,-250.137405,67.755722
1.984314,1.984314,1.984314,-111.167938,-128.557251,178.343506
1.984314,1.012207,1.984314,-250.137405,248.175568,248.175568
1.984314,-2.000000,1.984314,-230.404587,-115.801529,248.175568
1.984314,-0.336914,-2.000000,-180.145035,-250.137405,-250.137405
1.984314,1.984314,1.984314,24.297710,248.175568,-250.137405
-0.952148,1.357910,0.378418,248.175568,248.175568,-250.137405
-0.669434,0.066895,-0.678955,38.290077,44.480915,248.175568
1.467285,1.158447,1.938965,-8.732824,57.580154,248.175568
0.865967,1.117920,1.012695,37.870228,-11.290076,-67.549622
1.013184,1.382813,0.886963,-21.580153,-177.068695,-130.778625
1.334473,1.016846,0.934814,-86.358780,-157.885498,-90.541985
1.536621,0.758301,0.843506,-76.549622,-130.862595,16.832062
1.858154,0.442139,0.984131,-42.671757,-56.320610,81.694656
1.692139,0.255371,1.040039,-4.198473,-3.977099,38.961834
1.354980,0.052246,1.184570,45.885498,-18.480917,-16.396946
1.371094,0.267578,1.095215,74.458015,-12.419847,-35.335876
1.425537,0.482910,0.698730,63.351147,34.625954,-38.267174
1.292480,0.549561,0.349365,42.442749,60.045803,-56.236641
0.992187,0.495361,0.118652,18.335878,86.236641,-87.618324
0.637207,0.447021,0.050049,9.396947,108.473282,-104.297707
0.352295,0.362793,0.141602,4.687023,121.595421,-97.900764
0.127441,0.231445,0.044678,-14.625955,124.030533,-80.534348
-0.091553,0.036621,-0.217773,-46.564884,122.145035,-68.129768
-0.430664,-0.273926,-0.352783,-67.160309,120.778625,-53.404579
-0.745605,-0.585449,-0.456055,-62.984734,104.694656,-28.679390
-0.941895,-0.892090,-0.491943,-57.862595,73.328247,-0.427481
-1.019531,-1.002197,-0.293457,-32.198475,34.893131,26.473282
-0.902344,-0.949463,-0.350098,13.549619,-11.251908,46.412212
-0.718506,-0.756836,-0.500488,57.618320,-31.511450,56.038166
-0.711426,-0.476562,-1.027832,84.259544,-17.770992,67.740456
-0.948975,-0.233887,-1.038818,112.526718,0.961832,80.748093
-1.108643,0.057861,-1.242188,108.358780,-72.374046,92.465652
-1.127930,0.158447,-0.542969,62.809162,-143.305344,100.870232
-0.715088,0.514160,0.031006,40.328243,-207.343506,126.030533
0.162598,0.420654,1.839111,-39.503819,-246.076340,137.167938
1.750732,0.733398,1.984314,-186.702286,-153.312973,186.656494
1.984314,-1.365234,1.984314,-232.419846,-25.145039,248.175568
1.984314,-1.329590,-0.190430,-72.305344,-250.137405,240.297714
1.984314,0.998047,-1.925293,-63.007633,-250.137405,-250.137405
1.984314,1.984314,1.984314,248.175568,248.175568,-250.137405
-1.612793,0.951660,-1.523682,248.175568,248.175568,34.007633
-0.597412,1.653320,-0.576416,-115.045799,138.671753,248.175568
0.646484,1.656006,1.010254,-124.893127,-150.038162,148.702286
1.191650,1.243652,0.967285,-121.923668,-250.137405,-107.137405
1.942627,0.882324,1.296875,-170.045807,-250.137405,-152.755722
1.984314,0.625244,0.937744,-152.572525,-210.900757,-38.190838
1.984314,0.404297,1.069580,-75.801529,-101.587784,71.114502
1.875000,-0.109863,1.170166,-17.160305,28.465649,68.725189
1.383545,-0.262207,1.325439,44.511452,29.816793,24.816793
1.342773,0.110840,1.274414,89.786263,9.251908,-20.717558
1.624023,0.541260,0.801025,71.809158,27.236641,-55.061069
1.456055,0.704346,0.275879,36.297710,86.145035,-82.122139
0.955566,0.557129,0.080566,6.854962,129.122131,-103.656487
0.463379,0.380859,-0.159180,-13.618320,140.755722,-117.755722
0.107910,0.186279,-0.315430,-43.732826,136.793900,-113.137405
-0.150146,0.079834,-0.288818,-70.488548,136.389313,-92.404579
-0.305664,-0.068848,-0.181885,-82.916031,130.442749,-68.122139
-0.334229,-0.181152,-0.284424,-81.541985,101.824425,-54.282444
-0.304932,-0.440918,-0.691895,-83.259544,71.000000,-47.938931
-0.414795,-0.733154,-0.879883,-79.274811,73.000000,-30.038168
-0.703369,-0.937500,-0.718506,-47.755726,99.732826,5.664122
-0.974609,-0.932861,-0.782227,3.366412,100.664124,42.587788
-1.195557,-0.831543,-1.011475,42.038166,58.122139,64.473282
-1.280518,-0.647705,-1.569092,56.557251,-7.435114,72.587784
-1.330566,-0.363525,-1.896729,50.450382,-72.267174,72.412216
-1.420410,0.118408,-0.845215,85.809158,-156.793900,67.755722
-1.109619,0.920410,0.090576,169.244278,-250.137405,53.725189
-0.682373,1.290039,0.843506,161.694656,-250.137405,45.435116
0.577148,1.004150,1.984314,-80.328247,-239.587784,118.793892
1.984314,0.577393,1.984314,-250.137405,-59.435116,248.175568
1.984314,-2.000000,1.984314,-250.137405,44.221375,248.175568
1.984314,-0.751221,-2.000000,-199.251907,-250.137405,-53.129772
1.984314,1.984314,-0.366943,-62.335876,-38.977100,-250.137405
1.642334,1.984314,1.984314,248.175568,248.175568,-250.137405
-1.496338,0.166748,-1.813965,212.229004,248.175568,248.175568
-0.302979,0.855469,1.177002,-76.786263,232.503815,248.175568
-0.090820,1.494385,0.567871,7.618320,-30.442749,21.763359
0.345459,1.592773,0.433105,4.000000,-250.137405,-163.465652
1.686279,1.048340,1.051025,-148.580154,-250.137405,-149.557251
1.984314,0.861572,0.966553,-180.167938,-250.137405,-43.954197
1.984314,0.387451,1.504395,-84.534348,-13.366412,45.412212
1.779785,-0.204346,1.518066,18.000000,157.511444,31.404581
1.043457,-0.174561,1.161621,96.015266,88.274811,2.603053
1.110107,0.408203,0.860107,110.809158,39.381680,-32.839695
1.307617,0.774658,0.645508,42.198475,76.534348,-58.763359
1.009277,0.682129,0.408936,-34.030533,103.854965,-74.091606
0.570557,0.316895,0.237061,-72.091606,89.343513,-84.603050
0.298584,0.152100,0.305664,-69.297707,92.954201,-79.702293
0.156738,0.174316,0.239502,-53.496181,90.175575,-62.045803
0.139160,0.180908,0.068115,-49.908398,77.740456,-47.770992
0.207764,0.085205,-0.051758,-62.175571,64.053436,-42.877861
0.279785,-0.108887,-0.296387,-75.114502,59.916031,-45.442749
0.218262,-0.390381,-0.306885,-96.587784,74.343513,-42.786259
-0.035156,-0.620361,-0.342041,-92.770996,90.946564,-26.839695
-0.325195,-0.682373,-0.140625,-53.916031,86.931297,-3.076336
-0.531738,-0.626221,-0.376465,0.977099,59.015266,17.282442
-0.695312,-0.529541,-0.938965,32.625954,40.213741,35.969467
-0.902344,-0.359863,-1.513184,37.328243,35.480915,53.877861
-1.140381,-0.211670,-2.000000,8.488549,13.290076,64.274811
-1.393799,-0.115723,-2.000000,-33.259541,-46.427483,69.893127
-1.736816,0.194092,-0.866699,-3.244275,-157.335876,59.992367
-1.631836,0.602051,0.608398,74.511452,-250.137405,50.381680
-0.665771,1.015381,1.180420,129.938934,-250.137405,46.694656
1.112061,0.449707,1.984314,-62.282444,-250.137405,132.679382
1.984314,-0.193359,1.984314,-250.137405,65.229004,248.175568
1.984314,-2.000000,1.984314,-146.824432,-70.496185,247.671753
1.984314,0.633057,-1.809326,-40.129772,-250.137405,-238.099243
1.984314,1.984314,1.984314,247.190842,248.175568,-250.137405
-0.916748,0.659912,0.258057,248.175568,248.175568,-193.267181
-1.325684,0.515381,-1.080811,86.923668,247.137405,248.175568
0.155762,1.984314,0.098877,-46.343510,-127.908394,234.404587
1.308838,1.525879,1.117188,-150.175568,-250.137405,-13.404580
1.984314,1.314697,1.305176,-201.832062,-250.137405,-90.824425
1.984314,0.958496,1.474609,-145.603058,-179.419846,-24.801527
1.461670,0.524902,1.345703,-57.526718,-18.877863,58.503819
0.942383,0.214600,1.006836,3.297710,-15.282443,93.061066
0.865479,0.251221,1.025391,28.358778,-59.114502,74.091606
1.110107,0.434814,1.180908,28.381680,-72.709923,35.503819
1.498535,0.418213,1.224854,-3.007634,-61.557251,8.572519
1.727783,0.199707,1.109375,-42.702290,-10.099236,-0.717557
1.666016,0.052734,0.816406,-37.549618,30.068703,-30.114504
1.316650,-0.064209,0.638184,8.946565,80.732826,-62.824429
0.884766,0.101074,0.343506,69.419846,116.687019,-70.099236
0.515137,0.317627,-0.044434,90.335876,128.419846,-61.122139
0.256104,0.358398,-0.245117,57.770992,126.885498,-45.809162
0.061279,0.352051,-0.435791,5.458015,118.816795,-40.595421
-0.146729,0.095703,-0.662109,-42.122139,93.473282,-43.870228
-0.357910,-0.329102,-0.480225,-64.702293,83.534348,-32.015266
-0.553467,-0.584229,-0.185547,-31.587786,77.671753,-6.824428
-0.603271,-0.582275,0.011719,24.396946,49.274811,10.198473
-0.477539,-0.512207,-0.183350,49.854961,11.473283,19.549618
-0.303711,-0.366455,-0.563721,44.167938,18.809160,27.992367
-0.400879,-0.478027,-0.895020,26.053434,31.412214,34.389313
-0.675537,-0.628906,-0.892822,33.801525,54.167938,51.198475
-0.937744,-0.718994,-1.134277,60.152672,48.480915,77.954201
-1.133545,-0.727539,-0.998779,93.908394,-14.610687,105.610687
-0.968750,-0.353271,-0.616943,148.755722,-155.343506,117.717560
-0.414795,0.219482,-0.425049,193.770996,-250.137405,92.381676
0.025146,1.067139,0.471191,202.847336,-208.236649,79.969467
0.764404,1.701904,1.330078,87.587784,-103.725189,117.992363
1.984314,1.386230,1.984314,-250.137405,-23.480917,216.145035
1.984314,-0.256836,1.984314,-250.137405,156.893127,228.763351
1.984314,-2.000000,1.679199,-212.030533,-250.137405,238.480911
1.984314,0.241455,-1.537842,-62.893131,-250.137405,-250.137405
1.984314,1.984314,1.984314,248.175568,248.175568,-250.137405
-0.433594,1.045898,0.269775,248.175568,248.175568,-157.030533
-0.583984,1.922363,-1.786621,221.893127,248.175568,248.175568
0.461182,1.984314,-0.112793,-94.763359,-141.450378,211.061066
1.442383,1.974365,0.684082,-250.137405,-250.137405,-3.229008
1.984314,0.889648,1.341309,-250.137405,-250.137405,-89.748093
1.978760,-0.241455,1.103271,-250.137405,-226.496185,-44.664124
1.943604,-0.707520,1.237549,-102.938934,-168.793900,8.854961
1.624512,-0.899902,1.495361,36.114502,6.030534,0.702290
1.115479,-0.549316,1.286621,135.763351,46.511452,16.007633
1.114014,0.293213,0.988281,162.244278,51.190838,7.030534
1.174316,0.836426,0.541016,120.083969,66.435112,-36.664124
0.925049,0.785889,0.408691,32.717556,73.961830,-74.625954
0.593018,0.303467,0.478516,-11.740458,65.145035,-95.496185
0.446045,-0.166748,0.402100,3.870229,73.725189,-93.885498
0.374268,-0.223633,0.175781,54.946564,91.335876,-84.862595
0.185547,-0.226074,-0.131592,112.389313,106.938934,-74.679390
-0.031494,0.039551,0.265625,199.931305,129.160309,-59.221375
-0.184326,0.344727,-0.201172,221.961838,115.557251,-51.595421
-0.354248,0.219727,-0.582520,151.015274,95.251907,-41.068703
-0.435547,-0.126465,-0.435547,58.167938,56.778625,-27.618320
-0.468262,-0.492920,-0.507080,24.740458,30.152672,-20.832062
-0.545898,-0.778564,-0.543213,56.251907,32.297710,-8.091603
-0.659424,-0.835693,-0.826416,125.587784,26.778625,27.068703
-0.707031,-0.694092,-1.031250,163.870224,-1.557252,62.648853
-0.668945,-0.474609,-1.167725,162.282440,-50.541985,90.183205
-0.551514,-0.068604,-1.323730,95.137405,-91.068703,119.641220
-0.402832,0.394531,-1.090820,5.725191,-102.977097,137.038162
-0.152588,0.650879,-0.570068,-79.000000,-135.122131,127.931297
0.146973,0.232178,1.161377,-146.557251,-166.717560,133.282440
0.982422,1.131104,1.984314,-153.984726,-158.870224,133.564880
1.984314,1.274902,1.984314,-194.396942,-23.259542,248.175568
1.984314,0.006348,1.984314,-153.870224,106.793892,248.175568
1.984314,0.824951,-2.000000,-135.419846,-250.137405,-200.343506
1.984314,1.699219,-0.812988,-137.786255,-250.137405,-250.137405
1.406738,0.562012,1.984314,190.053436,248.175568,-250.137405
0.261963,0.218506,-0.118408,186.908401,248.175568,248.175568
0.417969,1.235596,0.396484,94.015266,206.725189,229.687027
0.352295,1.759766,0.400391,3.129771,-117.595421,22.572519
0.829102,1.564697,0.571777,-99.198471,-235.679382,-20.312977
1.592773,1.038574,0.708252,-185.213745,-250.137405,17.129770
1.984314,0.396729,0.761230,-182.061066,-225.305344,46.083969
1.984314,-0.135010,1.222412,-101.030533,-90.961830,37.541985
1.950684,-0.202393,1.262695,5.480916,8.061069,5.061069
1.599609,0.285156,0.933350,79.152672,25.015266,-19.053434
1.483887,0.688232,0.320801,86.900764,30.801527,-35.244274
1.306641,0.769043,-0.060059,44.312977,52.053436,-56.167938
1.052979,0.546143,-0.190918,-0.885496,62.687023,-81.641220
0.831787,0.286377,-0.190430,-22.717558,74.671753,-96.763359
0.632812,0.183350,-0.199951,-22.824427,98.435112,-100.923668
0.429932,0.191406,-0.314209,-15.656488,110.770996,-95.687019
0.261230,0.133301,-0.337402,-19.580153,115.679390,-84.625954
0.084473,-0.105713,-0.437012,-29.122137,113.809158,-70.053436
-0.128906,-0.415771,-0.183105,-24.137405,116.893127,-48.709923
-0.331787,-0.608398,-0.113037,7.618320,115.793892,-20.709923
-0.478271,-0.670166,-0.169922,38.129772,110.236641,5.931298
-0.588623,-0.581055,-0.202393,63.328243,105.923668,26.450382
-0.698730,-0.351563,-0.297852,85.656487,96.488548,35.931297
-0.868164,-0.200195,-0.767822,69.900764,64.946564,34.061069
-1.092285,-0.341553,-1.279541,8.061069,46.900764,43.091602
-1.288086,-0.626709,-1.564209,-49.312977,23.824427,70.900764
-1.447021,-0.918213,-1.299316,-50.137405,-37.480915,101.977097
-1.340576,-0.797119,-0.082520,25.870230,-178.519089,114.519081
-0.770752,0.160645,1.475830,155.458008,-250.137405,94.458015
0.122803,1.165771,1.972656,228.618317,-247.244278,80.687019
1.260010,1.704102,1.984314,35.351147,-101.793892,99.435112
1.984314,1.984314,1.984314,-170.526718,83.969467,166.557251
1.984314,0.491455,1.984314,-223.175568,221.442749,248.175568
1.984314,0.315186,-2.000000,-107.251907,-250.137405,-66.030533
1.984314,0.978027,-1.217285,-125.931297,-250.137405,-250.137405
1.522461,1.276855,1.984314,248.175568,248.175568,-250.137405
-0.033936,1.984314,-1.192383,72.664124,248.175568,176.816788
0.021973,1.752197,-0.538818,-4.145038,50.328243,110.251907
0.525146,0.382080,0.778076,-120.053436,-250.137405,-25.282442
1.589111,0.339355,1.300049,-76.381676,-250.137405,-37.351147
1.984314,0.806641,1.129150,-24.389313,-204.114502,7.358778
1.984314,0.909668,0.890137,0.244275,-19.389313,69.152672
1.519043,0.461426,0.729492,-13.572519,43.740459,87.343513
0.978271,0.294434,1.007324,-23.282442,-8.709924,39.030533
0.818359,0.281494,1.149414,-0.465649,-90.114502,-15.839695
1.357666,0.425049,1.211670,-2.633588,-104.816795,-13.480916
1.952637,0.689941,1.023193,-9.687023,-37.229008,-10.702291
1.898682,0.654541,0.714111,-3.458015,60.129772,-38.335876
1.295898,0.443604,0.478027,9.511451,117.725189,-72.770996
0.786621,0.408203,0.221191,31.045801,125.702293,-93.725189
0.552979,0.527100,0.039307,35.099236,132.465652,-100.022903
0.387695,0.562256,-0.541260,-2.458015,131.877869,-95.442749
0.176514,0.448242,-0.518799,-49.435116,134.366409,-89.458015
-0.098145,0.180176,-0.561035,-60.793892,129.442749,-81.870232
-0.371338,-0.269775,-0.576904,-63.381680,125.854965,-66.442749
-0.666992,-0.789062,-0.612305,-71.458015,114.610687,-37.595421
-0.942871,-1.101318,-0.528320,-63.885498,111.671753,4.427481
-1.116943,-1.123291,-0.576904,-31.083969,99.145035,39.236641
-1.147949,-0.842773,-0.564209,31.931297,36.038166,55.916031
-1.000244,-0.480713,-0.780029,90.022903,-49.519085,45.519085
-0.898193,-0.367676,-1.045410,93.083969,-91.480919,38.251907
-0.847168,-0.351807,-1.115234,64.702293,-113.511452,59.488548
-0.572998,-0.339111,-1.049316,47.175571,-164.358780,81.038170
-0.219971,-0.196777,-0.198242,57.190838,-202.106873,83.625954
0.213135,0.562988,1.235596,137.099243,-166.381683,94.931297
0.807129,1.254883,1.665039,132.267181,-97.038170,102.274811
1.507568,1.601318,1.984314,-2.312977,44.908398,150.679382
1.984314,1.582520,1.984314,-186.511444,169.511444,237.656494
1.984314,0.678223,1.984314,-69.664124,87.465652,239.763351
1.984314,0.657715,-2.000000,-39.732826,-250.137405,-250.137405
1.984314,0.988037,1.164551,-3.267176,-6.267176,-250.137405
0.416260,1.282715,0.697266,221.480911,248.175568,-25.435114
0.580078,1.984314,-1.609375,15.572519,145.374039,149.824432
0.849365,0.867920,0.096924,-40.511452,-165.854965,15.015267
1.548340,0.375732,1.104248,-76.022903,-177.564880,-42.984734
1.693848,0.615967,1.159424,-36.549618,-74.664124,-41.480915
1.343018,0.680176,0.689453,4.519084,-36.694656,38.687023
1.348389,0.849121,0.713135,-6.862596,-47.931297,107.687019
1.293457,0.741943,0.707031,-57.488548,-40.274811,78.175575
1.149414,0.558105,0.804199,-81.778625,-104.030533,20.938931
1.153076,0.353760,0.883057,-76.274811,-127.709923,-2.450382
1.376953,0.242187,0.904053,-62.206108,-111.862595,16.977098
1.668701,0.318359,0.802979,-37.335876,-72.167938,24.229008
1.630615,0.406250,0.696045,5.297710,-5.900764,-0.496183
1.257080,0.538574,0.417236,42.923664,35.297710,-27.961832
0.888184,0.599365,0.166260,52.961834,46.068703,-40.534351
0.684814,0.625244,0.038574,45.580154,45.045803,-46.045803
0.621826,0.578857,0.012695,22.534351,46.992367,-48.450382
0.595459,0.436523,0.155762,-7.419847,59.244274,-49.053436
0.517578,0.274658,0.135254,-25.809160,70.267174,-53.816795
0.363037,0.032471,0.098877,-44.053436,85.167938,-54.206108
0.149658,-0.216797,0.098633,-46.793892,98.419846,-44.244274
-0.013428,-0.383545,0.120605,-32.793892,101.862595,-26.145039
-0.136963,-0.464844,0.138428,-5.992366,100.435112,-12.236641
-0.248535,-0.409912,0.223145,28.717558,99.137405,-2.519084
-0.345215,-0.284668,0.018311,55.839695,90.664124,1.954198
-0.430664,-0.253174,-0.416016,46.900764,72.374046,3.801527
-0.607178,-0.341797,-0.747070,20.091602,59.534351,7.641222
-0.854004,-0.419434,-1.041016,-0.259542,53.045803,21.282442
-1.054688,-0.399414,-1.418945,-14.916031,21.480917,44.190838
-1.178467,-0.353516,-1.648926,-23.778625,-37.099236,66.038170
-1.177979,-0.322021,-1.764404,-28.969465,-125.290077,79.809158
-0.975342,-0.099609,-0.422852,-4.969466,-250.137405,79.022903
-0.266602,0.428711,1.028076,52.839695,-250.137405,75.374046
0.828613,1.091309,1.984314,100.312981,-225.259537,78.000000
1.802002,1.447510,1.984314,50.290077,-49.244274,119.160309
1.984314,1.421631,1.984314,-96.961830,113.450378,136.488556
1.984314,-0.199463,1.984314,-250.137405,149.854965,177.083969
1.984314,-0.669189,1.984314,-124.870232,-20.946566,54.862595
1.984314,-0.262207,-2.000000,-107.984734,-250.137405,-250.137405
1.984314,0.842041,0.572754,15.832061,33.335876,-250.137405
0.613525,0.576172,0.779785,248.175568,248.175568,-77.366409
0.890625,1.984314,-1.434570,248.175568,248.175568,248.175568
0.702881,1.984314,-0.924316,-70.595421,22.839695,18.137405
0.913574,1.085693,0.146484,-207.343506,-250.137405,20.740458
1.725098,0.439941,1.123779,-242.007629,-250.137405,9.137404
1.945313,-0.067871,0.841797,-117.786263,-189.129776,-4.328244
1.984314,-0.043945,0.796143,2.557252,-79.984734,7.648855
1.915039,0.125977,0.822998,44.221375,1.908397,44.534351
1.385254,0.249756,0.813232,52.603054,33.916031,40.709923
1.030029,0.348877,0.818848,34.946564,-15.748092,14.519084
1.177734,0.446289,0.880371,7.755725,-67.000000,-18.870230
1.465332,0.480469,0.919434,-8.274809,-40.900764,-34.809162
1.344727,0.474365,0.802979,7.961832,24.824427,-44.709923
0.933105,0.401611,0.602539,28.557251,67.076332,-53.557251
0.614990,0.385986,0.522949,40.496181,76.488548,-61.312977
0.405273,0.363281,0.329102,32.351147,79.229004,-67.274811
0.262695,0.233887,0.280029,-0.816794,80.679390,-59.641220
0.193848,0.156006,0.327393,-17.305344,86.931297,-49.862595
0.133301,0.097900,0.131104,-18.167938,86.946564,-46.641220
0.029053,0.003174,0.071289,-12.877863,92.725189,-42.870228
-0.097656,-0.083496,0.012695,5.572519,93.847328,-31.641222
-0.179687,-0.183350,0.006836,23.908398,87.778625,-19.404581
-0.190430,-0.298584,0.119873,39.916031,84.099236,-10.000000
-0.202881,-0.322021,-0.205566,47.068703,81.648857,-9.564885
-0.363770,-0.449463,-0.591553,37.786259,95.564888,-4.442748
-0.613037,-0.520752,-0.989258,34.488548,98.748093,12.496183
-0.865723,-0.476562,-1.259766,40.847328,87.099236,28.717558
-1.120850,-0.473389,-1.485840,33.564884,35.633587,43.435116
-1.189209,-0.522461,-1.639160,6.274809,-79.900764,66.061066
-0.895996,-0.493896,-1.187988,-0.297710,-204.038162,82.335876
-0.261475,-0.327148,-0.503906,46.183205,-250.137405,91.007637
0.610840,0.417725,1.075928,143.320618,-250.137405,78.526718
1.458740,1.361084,1.243408,172.274811,-147.511444,82.442749
1.984314,1.984314,1.984314,60.175571,96.603050,147.595413
1.984314,1.984314,1.984314,-183.412216,180.748093,121.114502
1.984314,1.158203,1.984314,-191.557251,109.259544,97.366409
1.984314,-0.296143,0.047363,-85.793892,-218.824432,-80.160309
1.984314,-0.179199,-2.000000,-154.061066,-250.137405,-250.137405
1.535400,0.886719,1.849609,200.068695,248.175568,-242.809158
1.001221,1.500244,-0.747070,248.175568,248.175568,101.129768
1.675293,1.984314,-0.842041,113.702293,53.923664,129.091599
1.364014,1.598633,0.680908,-127.099236,-31.801527,-23.938931
1.001465,0.492676,0.513428,-120.984734,-224.328247,-11.656488
1.552246,0.288086,1.057861,-76.610687,-195.328247,35.572517
1.842529,0.261475,0.879150,-31.595419,-80.374046,67.015266
1.903320,0.269043,0.691650,-8.854961,-50.290077,65.381676
1.666016,0.378906,0.951172,-5.633588,-24.816793,14.458015
1.263672,0.449951,0.903564,-0.267176,-28.312977,-14.038168
1.219482,0.558105,0.747070,-13.106871,-36.030533,-11.022901
1.325684,0.632812,0.463867,-22.106871,-3.916031,-26.167938
1.207520,0.660400,0.179687,-20.183207,43.732826,-54.503819
0.900146,0.598389,0.110352,-16.404581,84.473282,-77.328247
0.629883,0.566650,0.132324,-5.549618,107.877861,-83.297707
0.539307,0.614502,0.103027,-11.900764,117.450378,-84.206108
0.443359,0.601074,-0.176514,-34.381680,116.931297,-93.160309
0.266113,0.416260,-0.238525,-60.610687,119.000000,-98.167938
0.055420,0.132812,-0.325195,-81.145035,118.763359,-91.175575
-0.110107,-0.267822,-0.498535,-91.145035,114.839691,-79.160309
-0.347168,-0.882324,-0.586914,-104.832062,123.633591,-60.664124
-0.735352,-1.402832,-0.547852,-88.969467,168.122131,-23.358778
-1.318848,-1.677734,-0.605957,-35.862595,211.366409,29.671755
-1.751709,-1.287354,-1.043213,48.290077,172.465652,78.183205
-1.808350,-0.701904,-1.803955,107.045799,16.435114,94.480919
-1.565430,-0.285400,-2.000000,105.656487,-151.038162,88.519081
-1.216553,0.196533,-1.754395,117.480919,-250.137405,84.053436
-0.745361,0.785645,0.268799,167.664124,-250.137405,86.862595
0.276611,1.548828,1.750000,120.152672,-250.137405,85.274811
1.924072,1.936768,1.984314,-67.374046,-121.488548,153.717560
1.984314,1.531250,1.984314,-228.137405,62.328243,178.793900
1.984314,-0.063721,1.984314,-140.412216,121.641220,248.175568
1.984314,-0.445801,-2.000000,9.656488,-250.137405,-97.854965
1.984314,0.433594,-2.000000,-113.267174,-250.137405,-250.137405
1.596924,1.271484,1.984314,248.175568,248.175568,-250.137405
1.001465,1.660889,-1.248779,248.175568,248.175568,118.687019
0.919434,1.984314,0.018555,-80.274811,89.595421,25.648855
0.025879,1.066895,0.686279,-101.091606,-178.908401,-16.748091
0.653076,0.428955,1.111816,-131.022903,-239.045807,66.015266
1.511963,0.393066,0.937988,-109.396950,-203.618317,82.213737
1.984314,0.410400,0.826172,-79.992363,-175.305344,56.007633
1.984314,0.196777,0.899658,-55.732826,-98.229004,23.305344
1.686768,0.048828,1.192627,-19.519083,-8.167939,0.175573
1.149170,0.181641,1.234375,28.297710,7.664122,-9.251908
1.147461,0.582031,1.006592,44.610687,-0.404580,-12.809160
1.355225,0.924561,0.501221,21.137405,17.076336,-35.511452
1.239258,0.951660,0.326904,-8.564885,67.954201,-66.221375
0.871338,0.761963,0.245361,-24.320610,99.511452,-81.122139
0.611328,0.580811,-0.028809,-30.305344,101.396950,-88.755722
0.480713,0.328857,-0.058838,-39.312977,95.969467,-87.885498
0.426270,0.192139,0.039307,-24.106871,98.099236,-81.679390
0.335938,0.183594,-0.114990,0.465649,100.297707,-85.725189
0.152100,0.152344,-0.290771,7.137404,110.564888,-88.175575
-0.144043,-0.082764,-0.503906,-14.770992,123.862595,-73.748093
-0.439697,-0.470459,-0.885010,-57.404579,132.862595,-51.183205
-0.802979,-0.925049,-0.869629,-85.022903,147.015274,-20.854961
-1.183350,-1.194824,-0.808350,-73.679390,163.793900,14.160305
-1.481689,-1.051758,-1.291016,-35.183205,146.679382,44.610687
-1.703369,-0.860596,-1.789063,8.343512,63.931297,68.748093
-1.699707,-0.840088,-2.000000,10.946565,-85.809158,86.816795
-1.641846,-0.906006,-2.000000,20.290077,-222.725189,114.854965
-1.168457,-0.360352,-0.781006,113.320610,-250.137405,120.519081
-0.198730,0.963135,1.635010,248.175568,-250.137405,80.007637
1.984314,1.984314,1.984314,160.183212,-250.137405,98.312981
1.984314,1.984314,1.984314,-101.206108,94.839691,158.465652
1.984314,1.349121,1.984314,-250.137405,248.175568,248.175568
1.984314,-1.014893,1.984314,-115.862595,141.641220,107.381676
1.984314,-1.289063,-2.000000,-139.206100,-250.137405,-250.137405
1.984314,1.164307,1.984314,-60.526718,-109.549622,-250.137405
1.218262,1.288574,-0.309570,248.175568,248.175568,1.106870
1.780762,1.984314,-1.355469,248.175568,248.175568,184.000000
1.594482,1.984314,0.088135,64.343513,85.312981,-96.404579
-0.160889,1.295654,0.654297,-14.885496,-45.839695,-102.801529
-0.123535,0.818604,0.566162,-38.297710,-138.190842,66.931297
0.953857,0.948730,0.492187,-94.748093,-198.160309,143.816788
1.984314,0.685791,0.665283,-124.633591,-238.175568,107.083969
1.984314,0.266357,1.203613,-128.732819,-189.114502,27.297710
1.984314,-0.205078,1.458252,-63.221375,-86.580154,-16.511450
1.598389,-0.206787,1.174072,-8.954199,-46.854961,15.076336
1.728760,0.293945,0.840576,10.648855,-40.977100,22.839695
1.686279,0.614258,0.630615,18.755726,15.061069,-8.839695
1.329590,0.690918,0.291016,12.511451,48.587788,-45.083969
0.933838,0.604492,0.044189,-5.618320,60.816795,-68.679390
0.606934,0.516846,-0.137451,-15.381680,77.366409,-78.137405
0.350342,0.502197,-0.252686,-17.129770,105.526718,-78.534348
0.143066,0.413574,-0.300293,-25.122137,118.251907,-73.122139
0.015869,0.307129,-0.397705,-26.954199,112.351143,-70.656487
-0.034912,0.137451,-0.466553,-29.083969,107.610687,-72.496185
-0.105469,-0.062988,-0.533203,-30.129770,110.053436,-69.435112
-0.251953,-0.320068,-0.640137,-33.282444,107.160309,-57.259541
-0.505127,-0.675781,-0.502686,-40.297710,114.251907,-30.419847
-0.816650,-0.946777,-0.411621,-33.488548,123.877861,8.045801
-1.073730,-0.971191,-0.266846,4.412214,129.671753,41.465649
-1.142578,-0.706787,-0.826660,49.977100,72.641220,51.335876
-1.115479,-0.576172,-1.340576,60.854961,-4.778626,48.328243
-1.122803,-0.608643,-1.331299,59.236641,-51.167938,52.587788
-1.089355,-0.592285,-0.964111,59.717556,-129.328247,65.778625
-0.736328,-0.165283,0.029541,63.938931,-232.580154,79.366409
-0.015625,0.782227,1.065674,89.839691,-230.053436,66.580154
0.564941,1.367188,1.739502,43.916031,-124.977097,76.335876
1.030273,1.225098,1.984314,-53.488548,15.213740,138.931305
1.984314,1.250244,1.984314,-155.022903,158.244278,177.511444
1.984314,0.264648,1.984314,-44.885498,240.664124,248.175568
1.984314,0.217285,-2.000000,-11.038168,-250.137405,-146.938934
1.984314,1.413818,-2.000000,-198.038162,-250.137405,-250.137405
1.984314,1.160156,0.653564,248.175568,248.175568,-180.358780
1.552734,1.447021,-2.000000,248.175568,248.175568,158.183212
0.795166,1.984314,-0.047119,-22.076336,99.030533,-151.374039
-0.182617,0.930420,0.952148,-39.496181,-80.068703,-38.122139
0.437256,0.706055,0.872314,-98.648857,-166.053436,105.343513
1.469238,0.779541,0.737793,-73.259544,-215.145035,106.702293
1.984314,0.691162,0.757568,-75.412216,-181.648849,46.343510
1.984314,0.439209,1.148682,-82.503815,-106.740456,-16.305344
1.867188,0.096924,1.482666,-39.389313,-4.358778,-42.328243
1.494629,0.245117,1.177246,1.664122,17.351145,-37.419846
1.626953,0.747314,0.747314,7.832061,31.320610,-58.931297
1.458496,1.037842,0.515869,0.709924,91.931297,-100.519081
1.031494,1.076904,0.430908,2.633588,138.931305,-133.961838
0.701416,0.981201,-0.059082,-14.877863,144.725189,-149.618317
0.412598,0.633057,-0.216309,-57.572517,149.129776,-156.679382
0.151123,0.224121,-0.537354,-76.106873,146.190842,-152.908401
-0.093262,-0.324219,-1.235352,-105.160309,147.969467,-145.000000
-0.594971,-1.309814,-1.613281,-158.755722,190.160309,-123.106873
-1.530762,-2.000000,-1.147461,-213.206100,248.175568,-47.068703
-2.000000,-2.000000,-2.000000,-233.198471,248.175568,71.030533
-2.000000,-2.000000,-2.000000,-159.916031,248.175568,192.053436
-2.000000,-1.030518,-2.000000,-21.641222,-109.900764,229.618317
-2.000000,-0.062744,-2.000000,201.259537,-250.137405,183.755722
-1.562744,0.721436,0.245117,248.175568,-250.137405,73.740456
0.318604,1.798584,1.984314,248.175568,-250.137405,109.198471
1.984314,1.984314,1.984314,-250.137405,-207.152664,248.175568
1.984314,1.937500,1.984314,-250.137405,211.435120,248.175568
1.984314,-1.195557,1.984314,-206.618317,127.725189,19.778625
1.984314,-1.580566,-2.000000,-238.580154,-250.137405,-250.137405
1.984314,1.131104,1.984314,16.389313,153.389313,-250.137405
0.240234,1.938232,-0.528076,248.175568,248.175568,-114.450378
0.462402,1.863281,-1.192383,248.175568,248.175568,248.175568
1.038330,1.399902,0.503174,47.541985,29.366413,97.603050
0.317871,1.460205,1.052002,-46.908398,-226.206100,-143.564880
0.539795,0.438232,1.249023,-33.870228,-202.816788,-68.267174
1.465820,0.759277,0.725586,-84.366409,-154.450378,107.564888
1.984314,0.688232,0.804687,-91.374046,-141.160309,75.351143
1.984314,0.203369,1.417480,-64.328247,-52.160305,-7.931298
1.659180,0.058350,1.584961,17.083969,-1.740458,-39.412212
1.630127,0.482422,1.363525,46.114502,13.045801,-23.190840
1.841797,0.864990,0.820312,18.381680,25.519083,-37.045803
1.649658,0.895020,0.548584,-11.236641,71.969467,-88.030533
1.250977,0.733154,0.444092,-19.847328,97.442749,-121.877861
1.006836,0.828857,0.095459,-15.832061,108.427483,-136.251907
0.850342,0.812012,0.033691,-42.274811,131.419846,-136.290070
0.634033,0.770264,-0.102295,-66.641220,150.213745,-132.244278
0.393799,0.531738,-0.492920,-95.068703,142.030533,-136.847336
0.151611,0.098633,-0.743896,-117.816795,138.122131,-138.885498
-0.113770,-0.556641,-1.116943,-141.091599,135.305344,-116.458015
-0.447021,-1.304688,-1.220947,-153.885498,148.610687,-67.809158
-0.992187,-1.980225,-0.820312,-125.198471,211.832062,0.893130
-1.517822,-1.882813,-1.242920,-41.900764,248.175568,74.580154
-1.888184,-1.355957,-2.000000,45.175571,179.473282,128.587784
-1.942871,-1.002686,-2.000000,85.916031,-17.664122,143.458008
-1.793701,-0.624268,-2.000000,71.099236,-205.396942,125.381676
-1.525146,-0.513916,-2.000000,32.854961,-250.137405,110.267174
-1.597656,-0.815430,-1.406982,8.564885,-250.137405,126.725189
-1.035400,0.380127,1.984314,197.083969,-250.137405,156.419846
1.485107,1.984314,1.984314,248.175568,-250.137405,129.854965
1.984314,1.984314,1.984314,-133.488556,-67.610687,248.175568
1.984314,1.984314,1.984314,-223.709930,248.175568,248.175568
1.984314,-0.319336,1.665039,-69.946564,40.931297,-109.297707
1.984314,-1.067627,-2.000000,-250.137405,-250.137405,-250.137405
1.984314,1.851074,1.984314,-54.099236,248.175568,-250.137405
-0.243408,0.951660,-1.276123,214.442749,248.175568,163.725189
0.660889,1.381592,-1.582520,169.381683,101.015266,248.175568
1.424805,1.269775,0.497559,-37.572517,-99.473282,-4.854962
1.424805,0.512695,1.236572,-19.465649,-168.916031,-85.137405
1.805664,0.623291,1.170166,-29.000000,-178.801529,4.793893
1.893311,1.223389,1.085449,-6.541985,-32.053436,55.099236
1.444580,0.946533,0.471436,-12.977099,-14.083969,76.557251
1.426514,0.539307,0.769531,-49.801525,-84.984734,73.427483
1.535400,0.349854,1.271729,-49.427483,-83.725189,20.824427
1.657959,0.301514,1.306885,-25.824427,-69.282440,-12.740458
1.830322,0.447021,0.916504,-12.442748,-34.511452,-34.992367
1.590820,0.528076,0.562012,0.183206,47.259541,-59.969467
1.033447,0.509277,0.238525,19.030535,99.167938,-75.038170
0.543945,0.456055,-0.100586,18.099237,102.732826,-83.091606
0.283691,0.524170,-0.191650,6.496183,101.106873,-80.916031
0.228516,0.465088,-0.219238,-35.442749,91.572517,-68.732826
0.255615,0.219482,-0.360352,-83.816795,86.961830,-64.175575
0.143799,-0.235107,-0.449463,-114.213737,98.129768,-63.412212
-0.153564,-0.685547,-0.322021,-91.229004,121.778625,-43.938931
-0.488525,-0.825195,-0.275391,-19.938931,128.809158,-14.534351
-0.788330,-0.757080,-0.237549,48.335876,109.061066,9.152672
-0.898437,-0.494629,-0.425049,78.465652,58.572517,25.137405
-0.817627,-0.270020,-0.791016,52.106869,9.709924,16.572519
-0.841797,-0.447021,-0.936768,-6.396946,-16.854961,5.648855
-0.940674,-0.727295,-1.048828,-45.595421,-25.068703,22.259542
-1.093994,-0.883057,-1.217041,-49.335876,-23.839695,59.610687
-1.398193,-0.685547,-0.330811,29.137405,-24.725191,102.603050
-1.367676,0.068359,0.363770,170.572525,-124.625954,110.206108
-0.932129,0.749756,0.744385,231.671753,-236.312973,79.755722
-0.033936,1.349121,0.572021,143.480911,-221.977097,108.297707
0.909912,1.533203,1.731934,-39.480915,-120.679390,155.679382
1.984314,1.072266,1.984314,-250.137405,19.122137,248.175568
1.984314,-0.242920,1.984314,-163.389313,156.129776,248.175568
1.984314,0.090576,-2.000000,-67.030533,-250.137405,-184.549622
1.984314,0.783447,-2.000000,-173.335876,-250.137405,-250.137405
1.654541,1.984314,1.984314,140.351151,248.175568,-250.137405
0.292236,1.984314,-2.000000,101.557251,248.175568,179.213745
0.201660,0.420898,-0.072266,8.038168,9.625955,182.610687
0.735352,-0.485840,1.507813,-53.709923,-135.404587,26.534351
1.317139,0.332520,1.188721,83.099236,-195.419846,-4.000000
1.808594,1.132568,0.822266,51.954197,-147.862595,2.877863
1.902588,1.507324,0.610352,-7.259542,-90.236641,32.839695
1.654297,0.965576,0.654785,-87.061066,-50.977100,65.465652
1.355225,0.326904,1.035889,-96.931297,-71.725189,43.824429
1.310059,0.012939,1.287598,-45.862595,-93.000000,-4.366412
1.749512,0.238525,1.316895,-3.129771,-73.725189,-24.580153
1.984314,0.673340,0.761963,12.824428,-7.152672,-42.702290
1.614990,0.732422,0.422607,9.206107,94.496185,-60.977100
0.954346,0.559326,0.130615,4.694656,133.824432,-77.045799
0.537109,0.385986,0.071045,1.671756,129.725189,-88.969467
0.328857,0.508301,-0.081543,8.320611,129.061066,-98.557251
0.229492,0.495605,-0.137939,-17.381680,128.419846,-92.770996
0.128174,0.244385,-0.431396,-65.694656,126.412216,-81.152672
-0.024170,-0.336670,-0.361328,-113.977097,138.236649,-67.358780
-0.277344,-0.891846,-0.232910,-109.106873,161.412216,-40.366413
-0.580811,-1.133057,-0.002686,-51.549618,174.801529,-9.175572
-0.854492,-0.975586,-0.016357,29.145039,159.832062,11.824428
-0.996582,-0.598877,-0.495361,86.190842,107.954201,22.748091
-1.090820,-0.361572,-1.072998,81.977097,71.022903,29.977098
-1.311523,-0.309326,-1.406494,29.091602,52.267174,43.885498
-1.437500,-0.365723,-1.891846,-29.190840,-11.160305,66.068703
-1.326660,-0.492187,-2.000000,-63.068703,-132.564880,84.740456
-0.928223,-0.368408,-1.647949,-20.000000,-250.137405,86.946564
-0.463379,-0.358643,-0.298828,27.809160,-250.137405,88.725189
0.379150,0.436035,1.419189,74.587784,-250.137405,76.045799
1.428955,1.059326,1.984314,25.045801,-188.022903,128.847336
1.984314,1.330322,1.984314,-179.251907,-30.816793,213.526718
1.984314,-0.478760,1.984314,-203.320618,198.213745,248.175568
1.984314,-0.187012,0.896729,28.396946,-31.885496,84.732826
1.984314,1.628418,-2.000000,-13.473283,-250.137405,-250.137405
1.978516,1.883301,1.984314,135.954193,248.175568,-250.137405
-0.550049,0.041748,-0.129395,248.175568,248.175568,135.450378
-0.220703,1.984314,-1.432861,-2.900763,218.167938,239.068695
0.240967,1.811768,-0.124268,-113.870232,-250.137405,15.389313
1.606201,0.489258,0.830811,-234.312973,-250.137405,22.198473
1.984314,0.471680,1.285889,-202.458008,-250.137405,25.053434
1.984314,0.202393,1.232178,-79.984734,-124.801529,7.656488
1.831299,-0.075928,0.943604,20.442749,9.931297,41.427483
1.251221,-0.079834,1.035156,71.977097,20.152672,71.580154
0.921631,0.178223,1.160645,87.328247,-2.190840,54.450382
0.977539,0.405273,0.879150,70.358780,-68.580154,19.656488
1.412598,0.391113,0.820312,26.954199,-64.862595,-9.259542
1.546143,0.318604,0.608887,8.206107,-3.458015,-30.549618
1.264648,0.186035,0.488037,39.122139,68.671753,-42.923664
0.869141,0.094482,0.199463,71.862595,95.534348,-45.618320
0.567139,0.080322,0.086914,90.320610,104.969467,-51.000000
0.278076,0.181641,-0.219971,101.534348,109.465652,-56.412212
0.061279,0.186035,-0.318115,90.969467,106.503815,-49.076336
-0.043457,0.162354,-0.354736,78.213737,89.335876,-37.267174
-0.057861,0.124268,-0.322021,82.167938,78.053436,-34.984734
-0.075684,0.000000,-0.156982,103.870232,75.213737,-33.076336
-0.115479,-0.121094,-0.131592,131.709930,74.679390,-29.022902
-0.200195,-0.220459,-0.248535,161.503815,79.488548,-22.740458
-0.306885,-0.399170,-0.222412,200.320618,85.984734,-16.625954
-0.440674,-0.510254,-0.338379,240.702286,66.000000,-4.778626
-0.504395,-0.379639,-0.495117,248.175568,58.137405,3.793893
-0.611328,-0.161377,-0.781738,248.175568,47.687023,13.610687
-0.750977,-0.109619,-1.024902,181.824432,22.748091,38.931297
-0.853760,-0.084961,-0.733154,57.511452,-4.732824,70.549622
-0.854980,-0.122070,-0.845947,-98.473282,-34.664124,109.893127
-0.631348,-0.266602,-0.320801,-151.564880,-86.984734,133.274811
-0.431152,-0.487305,0.367676,-250.137405,-182.381683,175.496185
0.463379,-0.017822,1.720459,-112.877861,-186.198471,248.175568
1.877441,1.737305,1.984314,-55.511452,-112.938934,184.908401
1.984314,1.984314,1.984314,-60.717556,54.610687,167.740463
1.984314,1.984314,0.259521,-30.198473,-46.251907,-12.366412
1.984314,0.705566,-2.000000,-250.137405,-250.137405,-250.137405
1.984314,0.404053,1.369873,-119.442749,114.091606,-250.137405
0.338135,0.618164,-0.623291,84.229004,248.175568,-99.427483
0.571045,0.667969,-0.672607,101.832062,132.694656,196.450378
1.726563,0.518799,0.671143,55.099236,-3.007634,138.251907
1.681152,0.812744,0.579102,31.755726,-68.916031,-6.595420
1.492432,0.816406,0.735352,12.381680,-74.007637,20.557251
1.524902,0.829346,0.811768,-25.480917,-39.045803,76.687019
1.535156,0.899902,0.817627,-63.862595,-79.938934,25.893129
1.419678,0.663330,1.002930,-57.412212,-117.648857,-29.152672
1.387207,0.388184,1.068115,-29.480917,-96.923668,-18.557251
1.539551,0.333008,0.983398,1.106870,-54.809162,10.961832
1.613770,0.492676,0.670654,15.656488,-4.473282,-2.671756
1.323486,0.584961,0.318848,8.603053,41.427483,-41.061069
0.878174,0.499512,0.047607,-10.198473,63.190838,-63.488548
0.558838,0.386963,-0.073975,-30.152672,72.732826,-65.809158
0.430420,0.311768,0.036865,-42.503819,82.992363,-65.389313
0.383057,0.384033,-0.052734,-48.236641,86.320610,-70.450378
0.341553,0.279785,-0.088867,-76.259544,94.160309,-74.549622
0.240723,0.067627,-0.214600,-95.755722,98.511452,-76.938934
0.100342,-0.180908,-0.205078,-99.320610,104.549622,-75.977097
