ax,ay,az,gx,gy,gz
-0.226318,1.984314,1.984314,24.099237,-86.190842,-16.900763
-1.132813,1.207275,1.984314,36.320610,-30.282442,-7.427481
-1.491699,-0.064453,1.984314,27.740458,42.839695,6.343512
-1.018311,-0.978271,1.984314,3.229008,91.282440,16.412214
-0.091797,-1.017578,-0.989258,-29.916031,77.732826,15.274809
0.844971,-0.106445,-2.000000,-37.778625,13.335877,3.671756
1.213623,1.188477,-2.000000,-24.175573,-58.946564,-10.007633
0.798096,1.984314,-0.429443,3.442748,-96.679390,-18.076336
-0.159668,1.984314,1.984314,28.274809,-77.572517,-15.694656
-1.079834,1.275879,1.984314,36.748093,-13.244275,-4.374046
-1.492676,-0.000977,1.984314,23.580153,58.572517,9.648855
-1.068115,-0.946045,1.984314,-2.847328,96.435112,17.480917
-0.195068,-1.052490,-0.727539,-27.519083,82.145035,15.916031
0.740234,-0.262451,-2.000000,-37.541985,23.725191,5.801527
1.204590,0.978516,-2.000000,-20.129770,-65.916031,-11.213740
0.947266,1.973633,-1.042480,6.816794,-97.503815,-18.396946
0.089844,1.984314,1.918701,29.770992,-74.977097,-15.366412
-0.844971,1.592041,1.984314,36.916031,-12.458015,-4.290076
-1.461914,0.403076,1.984314,23.473282,57.312977,9.274809
-1.295166,-0.691650,1.984314,-2.824427,94.900764,17.442749
-0.535400,-1.115234,0.301270,-27.778625,83.160309,16.480917
0.422363,-0.647705,-2.000000,-38.374046,27.954199,6.946565
1.109375,0.470459,-2.000000,-29.145039,-41.923664,-6.389313
1.144531,1.635742,-2.000000,-5.610687,-89.534348,-16.335878
0.520508,1.984314,0.549316,26.213741,-82.603050,-16.465649
-0.402344,1.978271,1.984314,36.816795,-26.832062,-6.877862
-1.217773,1.053711,1.984314,27.984734,42.610687,6.343512
-1.475586,-0.146240,1.984314,4.152672,89.587784,15.923664
-1.007080,-0.999023,1.984314,-21.748091,91.809158,17.541985
-0.137939,-1.042236,-0.872070,-36.862595,47.534351,10.381680
0.774170,-0.219727,-2.000000,-33.587788,-22.427481,-2.793893
1.207031,1.012451,-2.000000,-12.656488,-80.961830,-14.442748
0.931885,1.976563,-1.005371,14.267176,-95.938934,-18.213741
0.090576,1.984314,1.906250,33.343510,-59.900764,-12.236641
-0.830078,1.607910,1.984314,31.305344,28.603054,3.801527
-1.445557,0.452881,1.984314,9.816793,83.351143,14.603053
-1.311768,-0.656738,1.984314,-17.343512,95.519081,18.145039
-0.566895,-1.120117,0.413086,-35.381680,56.458015,12.083969
0.413818,-0.656738,-2.000000,-34.900764,-13.931297,-1.030534
1.118164,0.504395,-2.000000,-15.030535,-76.564888,-13.564885
1.119629,1.708740,-1.942627,12.877863,-96.442749,-18.305344
0.415527,1.984314,0.885986,33.312977,-62.404579,-12.992367
-0.538574,1.881836,1.984314,35.717556,5.549618,-0.824427
-1.317139,0.851318,1.984314,18.145039,70.312981,12.106871
-1.431641,-0.368896,1.984314,-17.900763,95.083969,18.137405
-0.816406,-1.084717,1.291992,-36.648853,55.198475,11.778625
0.159180,-0.888184,-1.635010,-35.312977,-16.580153,-1.740458
0.995361,0.168213,-2.000000,-14.488549,-77.832062,-13.763359
1.194580,1.408447,-2.000000,13.458015,-95.763359,-18.328245
0.696533,1.984314,-0.075928,33.412212,-63.526718,-13.259542
-0.207275,1.984314,1.984314,36.679390,1.229008,-1.534351
-1.067139,1.315430,1.984314,20.473282,64.893127,10.916031
-1.490479,0.119385,1.984314,-6.465649,96.374046,17.824427
-1.157471,-0.860352,1.984314,-34.618320,64.664124,13.343512
-0.353760,-1.096436,-0.230957,-37.251907,1.099237,1.694656
0.586426,-0.472168,-2.000000,-21.412214,-64.007637,-10.656488
1.163086,0.699707,-2.000000,5.175572,-96.160309,-17.954199
1.068604,1.796875,-1.695801,28.755726,-77.519081,-15.488549
0.320068,1.984314,1.166748,36.557251,-17.832062,-4.801527
-0.626709,1.806641,1.984314,24.740458,52.312977,8.312977
-1.367432,0.721924,1.984314,-1.030534,93.687019,17.076336
-1.395020,-0.473633,1.984314,-26.625954,85.183205,16.526718
-0.727783,-1.099121,1.011963,-38.076336,30.633587,7.221374
0.229248,-0.821289,-1.799072,-23.358778,-59.343510,-9.969465
1.017578,0.244629,-2.000000,2.946565,-95.435112,-17.786259
1.181885,1.480713,-2.000000,27.603054,-79.595421,-15.709924
0.600830,1.984314,0.240967,37.022900,-18.053434,-4.938931
-1.412109,-0.426758,1.984314,13.862596,78.541985,13.900764
-0.766846,-1.082275,1.145264,-38.297710,12.282443,3.923664
0.173340,-0.852295,-1.658203,-26.007633,-56.175571,-9.167939
0.976074,0.149902,-2.000000,-0.435115,-94.931297,-17.305344
1.196777,1.364746,-2.000000,24.893129,-84.000000,-16.351145
-1.336182,0.791504,1.984314,36.022900,-6.290076,-2.931298
-1.422852,-0.390625,1.984314,22.587786,60.564884,9.908397
-0.814209,-1.074219,1.325439,-3.030534,96.603050,17.458015
0.111816,-0.900635,-1.501953,-27.358778,82.435112,15.961832
0.939209,0.077148,-2.000000,-37.618320,25.160305,6.145038
1.203613,1.291260,-2.000000,-28.618320,-45.183205,-6.923664
0.772949,1.984314,-0.385742,-4.603054,-91.595421,-16.442749
-0.158447,1.984314,1.984314,21.343512,-88.633591,-16.786259
-1.057129,1.317871,1.984314,35.740459,-37.977100,-8.160305
-1.488281,0.081543,1.984314,29.931297,34.030533,4.938931
-1.121826,-0.895752,1.984314,-0.648855,95.145035,17.282442
-0.280518,-1.075195,-0.419189,-25.595419,85.938934,16.679390
0.635010,-0.395996,-2.000000,-37.656490,33.419846,7.305344
1.167725,0.756104,-2.000000,-30.290077,-36.877861,-5.709924
1.058105,1.808838,-1.659180,-8.832061,-87.007637,-15.633588
0.343018,1.984314,1.078613,16.969465,-94.458015,-18.068703
-0.562500,1.852539,1.984314,34.366413,-55.633587,-11.580153
-1.310303,0.857422,1.984314,34.557251,11.778625,0.725191
-1.443359,-0.313232,1.984314,16.824427,72.832062,12.770992
-0.878174,-1.044189,1.573486,-10.061069,97.770996,18.274809
0.015869,-0.952637,-1.242432,-36.000000,57.122139,12.053435
0.867187,-0.065186,-2.000000,-36.519085,-10.221375,-0.526718
1.209961,1.117188,-2.000000,-19.000000,-71.145035,-12.419847
0.890137,1.979492,-0.872803,7.702290,-96.580154,-17.809160
0.043457,1.984314,1.974121,30.160305,-73.763359,-14.641221
-0.846191,1.583008,1.984314,37.251907,-14.076336,-4.259542
-1.444092,0.443359,1.984314,25.167938,54.045803,8.832061
-1.308594,-0.641846,1.984314,0.099237,94.213737,17.152672
-0.581055,-1.101563,0.520752,-25.152672,86.664124,16.587786
0.362061,-0.689941,-2.000000,-37.908398,34.351147,7.717557
1.067871,0.380127,-2.000000,-25.778625,-54.251907,-8.893129
1.160400,1.546143,-2.000000,-1.114504,-94.290077,-16.877863
0.576904,1.984314,0.303467,24.030535,-85.641220,-16.427481
-0.362793,1.984314,1.984314,36.282444,-31.503817,-6.992366
-1.197021,1.087402,1.984314,28.427481,39.732826,6.137404
-1.469238,-0.161133,1.984314,4.656488,90.160309,16.076336
-0.945068,-1.029053,1.835938,-22.351145,90.519081,17.106871
-0.006836,-0.978027,-1.182617,-37.000000,40.076336,8.618320
0.876465,-0.043213,-2.000000,-31.580153,-31.778625,-4.732824
1.204834,1.197266,-2.000000,-1.000000,-94.167938,-17.274809
0.815430,1.984314,-0.568604,24.625954,-85.244278,-16.595419
-0.103271,1.984314,1.984314,36.641220,-28.847328,-6.770992
-1.009521,1.394775,1.984314,28.305344,42.053436,6.465649
-1.485596,0.185547,1.984314,4.099236,89.770996,16.175573
-1.179443,-0.824463,1.984314,-22.610687,90.755722,17.412214
-0.352295,-1.097900,-0.216064,-37.664124,43.213741,9.343512
0.616211,-0.425781,-2.000000,-32.351147,-29.259542,-3.916031
1.183105,0.800049,-2.000000,-9.595420,-85.809158,-15.267176
1.000488,1.903076,-1.358154,18.511450,-92.824425,-17.748091
0.131348,1.984314,1.733398,36.809162,-24.328245,-6.236641
-0.855469,1.589355,1.984314,25.801527,49.786259,7.740458
-1.465576,0.347656,1.984314,-0.687023,93.419846,16.717558
-1.236572,-0.759521,1.984314,-26.687023,84.061066,16.190840
-0.429932,-1.102783,0.027588,-37.824429,28.396946,6.564886
0.540527,-0.511475,-2.000000,-28.748091,-43.099236,-6.854962
1.151367,0.675293,-2.000000,-4.015267,-91.061066,-16.488550
1.057861,1.802490,-1.694092,22.236641,-88.732826,-17.030535
0.318115,1.984314,1.152100,36.381680,-39.480915,-8.625955
-0.616943,1.814697,1.984314,30.534351,31.152672,4.427481
-1.346191,0.759521,1.984314,0.305344,93.687019,17.099237
-1.410156,-0.420654,1.984314,-25.786259,86.961830,16.832062
-0.782959,-1.082031,1.233643,-38.366413,34.816795,7.526718
0.147705,-0.882080,-1.589355,-31.603054,-35.198475,-5.297710
0.953369,0.099854,-2.000000,-9.381680,-86.511452,-15.526717
1.198486,1.292480,-2.000000,17.183207,-94.694656,-18.137405
0.782959,1.984314,-0.435303,34.893131,-53.946564,-11.503817
-0.120117,1.984314,1.984314,34.587788,15.732824,1.305344
-1.008545,1.387939,1.984314,15.450381,76.656487,13.061069
-1.484375,0.170654,1.984314,-12.259542,97.519081,17.938931
-1.175781,-0.830566,1.984314,-37.061069,50.076336,10.717557
-0.364502,-1.085938,-0.190186,-35.488548,-19.480917,-1.961832
0.564209,-0.477051,-2.000000,-16.312977,-78.450378,-13.381680
1.145508,0.646729,-2.000000,10.290076,-97.870232,-18.114504
1.084473,1.768799,-1.775879,31.763359,-65.549622,-13.190840
0.333984,1.984314,1.147217,35.297710,3.648855,-1.145038
-0.642578,1.792480,1.984314,18.496183,70.320610,11.687023
-1.379150,0.686523,1.984314,-8.992367,98.030533,18.206106
-1.396729,-0.474854,1.984314,-31.664122,72.549622,14.473283
-0.746094,-1.088867,1.072510,-38.679390,9.755725,3.381679
1.089111,1.764160,-1.789795,-18.671755,-73.580154,-12.793893
0.363525,1.984314,1.031494,8.519084,-97.000000,-18.045801
-0.556641,1.859619,1.984314,30.221375,-71.893127,-14.374045
-1.309326,0.854248,1.984314,36.022900,-9.954199,-3.740458
-1.448486,-0.301514,1.984314,23.931297,56.099236,9.007633
-0.897949,-1.049316,1.621582,-1.045802,94.229004,17.129770
-0.011719,-0.982178,-1.197998,-25.435114,86.190842,16.480917
0.847900,-0.094238,-2.000000,-37.274811,34.725189,7.824428
1.209717,1.110107,-2.000000,-31.053434,-34.450382,-5.099236
0.901367,1.984314,-0.915771,-1.450382,-94.000000,-17.175573
0.068604,1.984314,1.935791,22.656488,-87.427483,-16.961832
-0.820557,1.610596,1.984314,35.503819,-37.641220,-8.427481
-1.436523,0.481201,1.984314,30.061069,32.274811,4.381680
-1.326660,-0.620850,1.984314,8.870229,85.328247,14.961832
-0.629395,-1.113525,0.665527,-17.091602,95.496185,17.908398
0.290771,-0.763916,-1.948486,-34.755726,57.786259,11.893129
1.036377,0.295898,-2.000000,-35.763359,-9.679389,-0.274809
1.183838,1.481445,-2.000000,-18.687023,-71.984734,-12.389313
0.656494,1.984314,0.039551,6.717557,-97.900764,-18.022902
-0.254395,1.984314,1.984314,32.992367,-57.770992,-11.885496
-1.114990,1.210938,1.984314,33.832062,11.633588,0.488550
-1.489990,-0.020752,1.984314,16.061069,74.450378,12.549619
-1.063477,-0.955322,1.984314,-11.335877,97.801529,17.916031
-0.187500,-1.053711,-0.734131,-32.244274,67.946564,13.618320
0.742187,-0.249756,-2.000000,-36.580154,1.931298,1.862595
1.195068,0.941895,-2.000000,-22.083969,-63.145039,-10.610687
0.989990,1.916260,-1.294922,2.854962,-96.366409,-17.572519
0.204590,1.984314,1.542969,25.832062,-81.702293,-16.030535
-0.695801,1.731201,1.984314,36.106869,-26.381680,-6.549618
-1.369141,0.688477,1.984314,22.603054,60.030533,9.755725
-1.412842,-0.415527,1.984314,-1.625954,95.595421,17.396946
-0.840332,-1.072998,1.392822,-25.458015,86.320610,16.526718
0.026611,-0.953369,-1.314941,-37.358780,36.793892,8.206107
0.856689,-0.068115,-2.000000,-32.259541,-30.572519,-4.129771
1.208252,1.097168,-2.000000,-12.068703,-83.206108,-14.641221
0.925049,1.982178,-1.005859,13.442748,-96.549622,-18.328245
0.096436,1.984314,1.874268,32.404579,-61.251907,-12.656488
-0.832275,1.601563,1.984314,34.229008,6.854962,-0.587786
-1.453857,0.411377,1.984314,16.809160,71.717560,12.076336
-1.289063,-0.696777,1.984314,-17.534351,95.068703,17.923664
-0.544189,-1.116211,0.364258,-35.167938,55.862595,11.778625
0.405273,-0.660400,-2.000000,-34.984734,-12.633588,-0.740458
1.099121,0.468262,-2.000000,-16.824427,-74.358780,-12.847328
1.146973,1.628662,-2.000000,9.061069,-97.190842,-18.083969
0.529053,1.984314,0.510986,30.091602,-70.343513,-14.015267
-0.377686,1.971680,1.984314,35.618320,-8.282443,-3.274809
-1.181885,1.095947,1.984314,23.000000,57.893131,9.374045
-1.483154,-0.083008,1.984314,-1.557252,95.687019,17.312977
-1.056396,-0.964111,1.984314,-25.824427,86.183205,16.618320
-0.227051,-1.066162,-0.618896,-37.625954,13.412213,3.923664
0.657959,-0.360840,-2.000000,-25.969465,-52.473282,-8.496183
1.173340,0.768066,-2.000000,-2.572519,-93.312981,-17.022902
1.075439,1.793945,-1.715088,21.816793,-89.618324,-17.465649
0.383545,1.984314,0.989258,35.709923,-42.717556,-9.511451
-0.503662,1.902832,1.984314,32.694656,23.343512,2.740458
-1.245361,0.995117,1.984314,13.770992,77.488548,13.450381
-1.477295,-0.147217,1.984314,-12.122137,97.305344,18.305344
-1.040283,-0.970459,1.984314,-32.396946,72.114502,14.816793
-0.218506,-1.069824,-0.634277,-36.625954,-9.725191,-0.244275
0.675537,-0.355469,-2.000000,-19.328245,-70.076332,-12.259542
1.174805,0.769775,-2.000000,6.488550,-96.748093,-18.229008
1.078857,1.794922,-1.717285,28.748091,-78.702293,-16.015266
0.383057,1.984314,0.980225,37.541985,-22.145039,-6.114504
-0.529297,1.895752,1.984314,28.045801,45.786259,6.893130
-1.274414,0.942871,1.984314,4.496183,90.297707,16.389313
-1.469238,-0.205322,1.984314,-21.603054,92.587784,17.923664
-0.990479,-1.004639,1.954346,-37.259541,50.732826,11.381680
-0.143311,-1.042969,-0.851807,-36.145039,-15.213740,-1.091603
0.736328,-0.271240,-2.000000,-10.458015,-86.114502,-15.396947
1.198975,0.902100,-2.000000,16.435114,-94.496185,-18.145039
1.006836,1.890625,-1.359619,34.633587,-56.145039,-12.160305
0.244873,1.984314,1.432617,35.610687,9.992367,-0.343511
-0.647461,1.790039,1.984314,19.022902,70.687019,11.954199
-1.345459,0.770996,1.984314,-7.343512,97.633591,17.816793
-1.432861,-0.369629,1.984314,-30.374046,77.809158,15.404580
-0.873779,-1.068115,1.498779,-38.862595,21.320610,5.770992
-0.007813,-0.983154,-1.231445,-29.694656,-45.183205,-6.862596
0.816895,-0.145020,-2.000000,-7.412214,-89.603050,-16.259542
-0.236572,1.984314,1.984314,24.129770,-86.114502,-16.931297
-1.037598,1.330322,1.984314,36.480915,-38.213741,-8.732824
-1.483643,0.199463,1.984314,32.083969,28.450382,3.450382
-1.233887,-0.774414,1.984314,11.877863,81.870232,14.274809
-0.526611,-1.111572,0.269775,-13.320611,97.259544,18.305344
0.341797,-0.715576,-2.000000,-32.908398,70.068703,14.183207
1.034912,0.282227,-2.000000,-38.396946,11.519084,3.709924
1.197021,1.407959,-2.000000,-26.717558,-52.259541,-8.603053
0.755127,1.984314,-0.277344,-3.236641,-92.679390,-16.954199
-0.090088,1.984314,1.984314,21.297710,-90.435112,-17.763359
-0.942383,1.472900,1.984314,37.488548,-25.832062,-6.687023
-1.462646,0.373535,1.984314,29.625954,39.320610,5.824428
-1.315186,-0.647217,1.984314,7.473282,86.862595,15.435115
-0.638672,-1.113281,0.638428,-18.503817,94.984734,18.145039
0.258057,-0.797607,-1.885986,-36.213741,58.541985,12.618320
1.001709,0.187012,-2.000000,-37.496181,-5.053435,0.770992
1.211670,1.317871,-2.000000,-22.091602,-65.038170,-11.160305
0.821289,1.984314,-0.542236,2.312977,-95.648857,-17.778625
0.041016,1.984314,1.984314,24.473282,-85.961830,-16.961832
-0.774658,1.645996,1.984314,36.954197,-40.083969,-9.419847
-1.386719,0.638672,1.984314,28.740458,44.503819,6.435114
-1.414307,-0.412598,1.984314,6.839694,89.435112,16.015266
-0.873291,-1.058350,1.491943,-18.091602,95.206108,18.290077
-0.041748,-0.997314,-1.147705,-35.702290,59.725189,12.511451
0.787842,-0.181396,-2.000000,-37.564884,-3.007634,1.442748
1.199463,0.954590,-2.000000,-22.488550,-64.412216,-10.450381
1.011230,1.899170,-1.343994,1.847328,-96.557251,-17.641222
0.278564,1.984314,1.341797,24.717558,-84.412216,-16.679390
-0.572266,1.834717,1.984314,36.274811,-35.175571,-8.183207
-1.267578,0.918701,1.984314,27.152672,48.755726,7.473282
-1.472900,-0.175537,1.984314,5.274809,91.083969,16.229008
-1.045898,-0.963867,1.984314,-18.832062,94.534348,17.893129
-0.265381,-1.068604,-0.524902,-35.244274,56.221375,11.740458
0.594727,-0.438232,-2.000000,-36.022900,-6.580153,0.366412
1.144043,0.646240,-2.000000,-20.580153,-66.648857,-11.083969
1.122803,1.697510,-1.999023,3.526718,-96.603050,-17.717558
0.514160,1.984314,0.567627,25.763359,-82.374046,-16.290077
-0.353027,1.984314,1.984314,36.213741,-31.290077,-7.374046
-1.146973,1.169678,1.984314,29.473282,35.488548,5.114504
-1.487793,0.005127,1.984314,0.351145,93.977097,17.030535
-1.127441,-0.896484,1.984314,-24.007633,88.854965,17.122137
-0.340576,-1.092285,-0.291992,-37.244274,42.068703,9.251908
0.558838,-0.491211,-2.000000,-33.076336,-24.725191,-3.114504
1.136475,0.603760,-2.000000,-13.480916,-79.725189,-13.977099
1.127441,1.681152,-2.000000,11.480916,-97.213737,-18.488550
0.520996,1.984314,0.546143,31.404581,-69.328247,-14.221375
-0.347656,1.984314,1.984314,36.694656,-9.984733,-3.740458
-1.138428,1.187988,1.984314,24.824427,54.274811,8.694656
-1.492920,0.040039,1.984314,1.229008,93.664124,16.961832
-1.147949,-0.877686,1.984314,-29.748091,78.786263,15.893129
-0.343994,-1.092041,-0.269043,-38.755726,21.763359,5.862596
0.571045,-0.476807,-2.000000,-28.900763,-45.832062,-7.030534
1.152344,0.654541,-2.000000,-5.106870,-90.541985,-16.351145
1.104492,1.736816,-1.868164,19.916031,-91.282440,-17.564886
0.421387,1.984314,0.864014,35.351147,-45.946564,-10.114504
-0.505127,1.895020,1.984314,33.175571,23.618320,2.557252
-1.277832,0.930420,1.984314,14.190840,80.374046,14.083969
-1.457031,-0.240967,1.984314,-12.251908,97.335876,18.053434
-0.948730,-1.008057,1.834473,-32.648853,67.213737,13.404580
-0.085449,-0.996826,-1.004395,-34.778625,-18.152672,-1.770992
0.795654,-0.157227,-2.000000,-16.328245,-77.351143,-13.167939
1.203613,1.020020,-2.000000,9.251908,-97.633591,-17.916031
0.951416,1.939941,-1.137207,30.129770,-69.091606,-13.641221
0.162842,1.984314,1.662598,35.809162,-6.465649,-2.633588
-0.742676,1.681396,1.984314,23.198473,60.656490,10.152672
-1.405518,0.605957,1.984314,-1.526718,96.694656,17.671755
-1.376221,-0.520752,1.984314,-26.099237,84.389313,16.381680
-0.712158,-1.098633,0.955322,-37.519085,29.969465,7.045802
0.202881,-0.833496,-1.731201,-30.595419,-39.106869,-5.549618
0.983887,0.162109,-2.000000,-0.366412,-95.687019,-17.198473
1.197510,1.341064,-2.000000,24.274809,-83.618324,-15.984733
0.719971,1.984314,-0.281982,37.366413,-27.519083,-5.625954
-0.204834,1.984314,1.984314,28.977098,42.412212,8.450381
-1.068848,1.318115,1.984314,8.343512,89.381676,18.824427
-1.456543,0.131104,1.984314,-14.671756,93.618324,20.946566
-1.125244,-0.853760,1.984314,-33.259541,52.954197,12.770992
-0.328857,-1.104492,-0.234619,-30.122137,-16.030535,0.839695
0.606201,-0.516602,-2.000000,-5.717557,-75.770996,-8.664123
1.183594,0.572266,-2.000000,29.603054,-96.549622,-13.160305
-0.905273,1.412109,1.984314,67.358780,-40.076336,-4.610687
-1.457764,0.339111,1.984314,69.725189,35.923664,8.908397
-1.271973,-0.665527,1.984314,42.916031,90.099236,19.832062
-0.514404,-1.019043,0.145996,-2.267176,97.480919,17.809160
0.457520,-0.475586,-2.000000,-30.862595,52.335876,9.335877
1.149414,0.660156,-2.000000,-47.755726,-23.396946,-7.709924
1.196289,1.764893,-2.000000,-48.114502,-86.595421,-18.297710
0.596924,1.984314,0.696045,-29.221375,-111.801529,-19.572519
-0.292236,1.873535,1.984314,3.893130,-87.274811,-14.610687
-1.118164,0.938965,1.984314,33.351147,8.641221,-0.465649
-1.465332,-0.164795,1.984314,43.633587,84.984734,8.847328
-1.156738,-0.907715,1.984314,21.931297,124.564888,15.068703
-0.409180,-0.938232,-0.699951,-8.022901,108.290077,18.366413
0.460449,-0.323730,-2.000000,-31.694656,40.839695,3.335878
1.048340,0.705811,-2.000000,-38.442749,-49.404579,-10.793893
1.139160,1.752197,-1.720459,-19.847328,-102.954201,-16.893129
0.636963,1.984314,0.739990,8.129771,-106.465652,-20.671755
-0.214111,1.984314,1.984314,30.832062,-63.267174,-16.152672
-1.082520,1.334717,1.984314,31.732824,4.870229,-6.114504
-1.561768,0.114014,1.984314,4.732824,79.045799,9.770992
-1.271240,-0.898682,1.984314,-26.725191,91.045799,16.000000
-0.484131,-1.221436,-0.283691,-48.496181,63.374046,13.763359
0.480957,-0.718750,-2.000000,-49.755726,8.274809,4.870229
1.170410,0.404297,-2.000000,-30.732824,-46.358780,-7.916030
1.230713,1.640625,-1.918701,-3.351145,-78.267174,-16.236641
0.625732,1.984314,0.505615,19.847328,-79.007637,-17.526718
-0.274902,1.984314,1.984314,31.335878,-49.770992,-13.931297
-1.076416,1.432861,1.984314,26.595419,2.503817,-6.877862
-1.510254,0.235596,1.984314,7.725191,55.755726,3.473282
-1.291016,-0.762695,1.984314,-23.213741,88.106873,13.900764
-0.632568,-1.215088,0.357666,-33.862595,72.809158,12.687023
0.201660,-0.977539,-1.817383,-35.335876,26.809160,4.671756
0.909424,-0.110840,-2.000000,-20.664122,-28.244274,-6.603054
1.204834,0.983887,-2.000000,0.877863,-72.839691,-16.564886
1.031006,1.835938,-0.774658,24.183207,-91.137405,-22.259542
0.443115,1.984314,1.621338,47.015266,-68.854965,-24.465649
-0.342773,1.971680,1.984314,57.664124,-14.847328,-18.007633
-1.126709,1.353516,1.984314,50.809162,46.000000,-4.725191
-1.525635,0.462402,1.984314,27.679390,85.931297,3.679389
-1.381348,-0.348389,1.984314,-5.824428,88.145035,9.435115
-0.734619,-0.735840,0.677979,-24.030535,62.061069,0.824427
-0.028320,-0.836182,-1.445068,-25.129770,27.091602,-8.412213
0.674805,-0.304688,-2.000000,-10.946565,-16.427481,-21.503817
1.049561,0.491455,-2.000000,13.824428,-55.839695,-28.694656
1.055908,1.351318,-1.996826,28.938931,-90.213737,-37.000000
0.739990,1.984314,0.079346,49.442749,-90.633591,-39.320610
0.135742,1.984314,1.984314,54.610687,-52.274811,-35.541985
-0.625488,1.853271,1.984314,44.885498,15.969465,-25.458015
-1.316895,1.025879,1.984314,18.893129,71.099236,-11.832061
-1.572021,0.012695,1.984314,-20.671755,93.725189,1.007634
-1.244629,-0.790039,1.984314,-33.748093,70.824425,-1.328244
-0.540527,-1.067627,-0.198730,-22.007633,30.816793,-13.824428
0.249268,-0.700928,-2.000000,0.977099,-18.358778,-28.549618
0.857910,0.143066,-2.000000,18.175573,-57.068703,-34.259541
0.966797,1.161621,-2.000000,29.694656,-87.664124,-41.587788
0.783936,1.984314,-0.578857,32.877861,-83.656487,-29.801527
0.027100,1.984314,1.984314,32.007633,-45.244274,-20.832062
-0.710693,1.753906,1.984314,21.900763,10.854961,-11.877863
-1.312256,0.826660,1.984314,-12.755725,73.259544,-4.977099
-1.436523,-0.178711,1.984314,-37.671757,91.137405,-4.175572
-1.036621,-0.876953,1.313477,-43.206108,68.053436,-4.763359
-0.314453,-0.958008,-1.260742,-35.679390,6.603054,-12.106871
0.497070,-0.506836,-2.000000,-15.725191,-64.236641,-22.694656
1.127197,0.291260,-2.000000,13.969465,-109.229004,-30.190840
1.275146,1.250000,-1.571289,43.923664,-93.091606,-28.229008
0.787109,1.923340,0.696777,61.786259,-24.480917,-14.427481
-0.116211,1.984314,1.984314,58.175571,51.526718,6.954198
-1.054199,1.564941,1.984314,34.595421,104.015266,23.053434
-1.688721,0.758789,1.984314,-4.877862,113.610687,28.740458
-1.724854,-0.072510,1.984314,-27.977098,69.656487,20.770992
-1.143066,-0.714355,0.930908,-34.709923,5.709924,7.679389
-0.199463,-0.749268,-1.403076,-24.022902,-56.198475,-7.091603
0.713135,-0.193115,-2.000000,2.854962,-85.572517,-20.137405
1.191895,0.670410,-2.000000,28.366413,-83.114502,-25.992367
1.101074,1.576904,-1.817383,43.618320,-55.984734,-23.335878
0.501953,1.984314,0.518066,46.442749,-9.595420,-13.992367
-0.353027,1.984314,1.984314,38.320610,33.465649,-3.961832
-1.129395,1.523926,1.984314,13.557252,58.190838,0.435115
-0.211670,-0.835205,-1.300781,-28.145039,54.106869,-1.007634
0.701904,-0.232422,-2.000000,-50.198475,23.435114,-7.007634
1.207275,0.699463,-2.000000,-47.480915,-25.236641,-12.648855
1.135742,1.607178,-1.693359,-23.480917,-73.358780,-22.549618
0.581055,1.984314,0.640625,9.946565,-98.816795,-34.816795
-0.329590,1.984314,1.984314,38.374046,-97.236641,-41.908398
-1.159912,1.473145,1.984314,48.931297,-56.725189,-36.404579
-1.622559,0.442139,1.984314,41.534351,5.175572,-23.106871
-1.431885,-0.449951,1.984314,17.274809,60.091602,-12.274809
-0.784424,-0.911621,0.293457,-12.145039,83.145035,-6.908397
0.052979,-0.687500,-1.923096,-37.870228,50.618320,-12.824428
0.763672,0.006592,-2.000000,-44.152672,-5.015267,-25.717558
1.101563,0.933594,-2.000000,-32.633587,-69.152672,-39.129772
0.982910,1.787842,-1.171387,-9.259542,-116.061066,-51.442749
0.402832,1.984314,1.272705,18.404581,-120.740456,-56.236641
-0.433350,1.984314,1.984314,36.305344,-83.610687,-51.877861
-1.221191,1.372314,1.984314,34.381680,-25.458015,-39.381680
-1.626953,0.346680,1.984314,13.366412,27.923664,-26.549618
-1.452637,-0.549561,1.984314,-12.442748,64.022903,-15.129771
-0.775879,-1.043457,0.316650,-34.213741,63.526718,-14.320611
0.122559,-0.824707,-1.807617,-50.442749,13.801527,-22.206106
0.919189,-0.101074,-2.000000,-44.122139,-39.923664,-29.793894
1.255371,0.897705,-2.000000,-26.442749,-82.664124,-33.809162
1.007080,1.682617,-0.879883,1.381679,-96.129768,-33.114502
0.277344,1.984314,1.527100,21.709923,-80.832062,-31.854961
-0.575195,1.848145,1.984314,31.557251,-49.335876,-26.061069
-1.312988,1.104004,1.984314,21.305344,-1.519084,-15.312977
-1.653809,0.169434,1.984314,-2.305344,50.114502,2.091603
-1.447998,-0.708496,1.984314,-29.732824,80.786263,15.954199
-0.817139,-1.107666,0.382813,-51.801525,67.671753,18.328245
-0.007080,-0.902344,-1.796631,-50.755726,21.969465,9.725191
0.714600,-0.179932,-2.000000,-0.007634,-0.007634,-0.007634
1.081055,0.833984,-2.000000,-11.763359,-82.358780,-9.816793
0.996826,1.776367,-1.274902,11.709924,-104.038170,-17.534351
0.459473,1.984314,1.215820,30.541985,-97.183205,-24.931297
-0.291504,1.984314,1.984314,32.137405,-57.977100,-27.053434
-1.049316,1.416992,1.984314,17.083969,7.091603,-19.083969
-1.482178,0.336670,1.984314,-8.656488,66.770996,-2.877863
-1.324463,-0.600586,1.984314,-28.396946,95.114502,6.229008
-0.753174,-1.008057,0.059326,-44.229008,62.694656,-3.274809
-0.051025,-0.792969,-2.000000,-38.465649,4.229008,-17.816793
0.581299,-0.098145,-2.000000,-22.541985,-63.916031,-29.297710
0.920166,0.848145,-2.000000,-1.992366,-108.847328,-39.671757
0.841797,1.619141,-0.847412,10.549619,-133.083969,-48.366413
0.422852,1.972656,1.442139,14.282443,-122.977097,-49.351147
-0.214600,1.765625,1.984314,11.015267,-68.290077,-37.343510
-0.937988,1.074219,1.984314,3.847328,14.152672,-15.801527
-1.449219,0.218018,1.984314,-5.549618,78.862595,6.022901
-1.580322,-0.236572,1.984314,-30.053434,79.557251,13.664123
1.094482,0.356201,-2.000000,-5.877862,-114.145035,-24.152672
1.470947,1.329102,-2.000000,15.396947,-143.167938,-33.175571
1.193115,1.955078,-0.010498,36.793892,-89.969467,-28.129770
0.299805,1.984314,1.984314,49.213741,8.419847,-11.099236
-0.818115,1.722656,1.984314,41.206108,87.801529,3.396947
-1.707275,0.942627,1.984314,8.778625,116.832062,8.931297
-1.973145,0.062744,1.984314,-29.900763,80.068703,7.534351
-1.376709,-0.641602,1.789551,-57.160305,16.351145,-6.854962
-0.437256,-0.849365,-0.607910,-65.198471,-40.419846,-23.633587
0.528564,-0.495850,-2.000000,-40.274811,-93.977097,-38.580154
1.155273,0.303711,-2.000000,-7.068702,-107.267174,-44.396946
1.254150,1.239502,-2.000000,22.847328,-100.526718,-46.503819
0.775146,1.786621,0.225830,36.122139,-69.358780,-36.167938
-0.024414,1.810059,1.984314,23.404581,-6.045802,-24.351145
-0.877197,1.277832,1.984314,5.900764,55.541985,-6.328244
-1.488525,0.380371,1.984314,-23.847328,82.496185,1.923664
-1.560059,-0.512207,1.984314,-44.923664,73.816795,6.206107
-1.049805,-1.045410,1.329834,-55.534351,27.885496,4.061069
-0.201660,-1.003418,-1.174805,-50.206108,-30.740458,-5.396946
0.669434,-0.406494,-2.000000,-18.061069,-89.755722,-19.900763
1.178955,0.465820,-2.000000,11.832061,-95.015266,-23.412214
1.164063,1.323242,-1.718506,36.396946,-68.954201,-19.564886
0.659180,1.865723,0.569580,44.480915,-18.091602,-11.877863
-0.148682,1.846436,1.984314,31.137405,42.427483,-0.908397
-0.978027,1.368896,1.984314,2.335878,80.343513,10.557252
-1.504395,0.472168,1.984314,-28.633587,89.625954,14.183207
-1.451904,-0.373779,1.984314,-50.335876,58.557251,8.946565
-0.864990,-0.893555,0.938721,-56.732826,1.885496,-2.396947
-0.048828,-0.826660,-1.579346,-39.908398,-52.305344,-12.793893
0.622070,1.709473,0.609375,3.152672,-93.893127,-20.068703
-0.203857,1.688477,1.984314,33.068703,-84.374046,-16.610687
-0.988037,1.168945,1.984314,50.183205,-41.954197,-8.961832
-1.450928,0.326172,1.984314,47.412212,16.175573,2.763359
-1.338867,-0.487793,1.984314,27.687023,70.870232,14.580153
-0.746582,-0.914307,0.691895,-0.893130,101.312981,22.656488
0.073486,-0.774658,-1.878174,-25.984734,85.366409,21.519083
0.796875,-0.068848,-2.000000,-38.305344,36.778625,10.374045
1.072510,0.809814,-2.000000,-25.305344,-21.229008,1.862595
0.843262,1.612061,-0.891846,19.366413,-84.335876,-9.709924
0.172607,1.968750,1.832764,51.099236,-93.099236,-14.587787
-0.610840,1.694824,1.984314,63.694656,-55.022900,-9.961832
-1.240967,0.905762,1.984314,54.786259,4.893130,0.496183
-1.405762,-0.155762,1.984314,26.557251,72.687019,11.786260
-0.986816,-0.851318,1.546387,-3.053435,110.625954,20.305344
-0.243164,-0.884766,-1.324463,-23.083969,89.648857,21.419847
0.609619,-0.125732,-2.000000,-36.511452,24.656488,7.389313
1.082275,0.918945,-2.000000,-26.938931,-45.877861,-12.335877
0.865234,1.765625,-0.983154,0.091603,-90.610687,-13.984733
0.151367,1.984314,1.975098,31.992367,-88.404579,-12.335877
-0.731445,1.570557,1.984314,42.419846,-23.763359,-8.206107
-1.405273,0.537842,1.984314,29.603054,56.557251,4.816794
-1.386475,-0.458008,1.984314,-1.748092,95.496185,16.534351
-0.701904,-0.950684,0.276611,-42.305344,80.625954,16.557251
0.248535,-0.672363,-2.000000,-69.145035,23.167938,11.778625
1.030029,0.200195,-2.000000,-65.923668,-48.213741,4.229008
1.209717,1.240479,-2.000000,-35.152672,-88.038170,-5.564886
0.552979,1.854004,0.641602,-0.786260,-83.748093,-8.503817
-0.513184,1.805664,1.984314,27.702290,-34.167938,2.099237
-1.419922,1.207031,1.984314,8.763359,49.503819,17.129770
-1.773682,0.165039,1.984314,-40.801525,76.412216,21.290077
-1.239746,-0.571289,1.417236,-99.717560,55.381680,34.305344
-0.201904,-0.552734,-1.587158,-129.251907,-8.458015,26.839695
0.754883,0.063965,-2.000000,-124.091606,-100.396950,0.068702
1.152588,0.912842,-2.000000,-89.740456,-173.687027,-18.160305
0.848877,1.536133,-0.274170,-50.656490,-190.809158,-14.557252
-0.017822,1.565674,1.984314,-12.908397,-144.083969,7.396946
-0.876465,0.916016,1.984314,-9.992367,-75.343513,37.511452
-1.343018,-0.065674,1.984314,-29.694656,-9.305344,52.312977
-1.085938,-0.950684,1.984314,-61.465649,-13.770992,57.793892
-0.192139,-1.135742,-0.525391,-58.312977,-72.862595,54.954197
0.801758,-0.480713,-2.000000,-42.061069,-139.328247,47.236641
1.452148,0.489746,-2.000000,-4.541985,-193.503815,35.137405
1.391113,1.400391,-0.927246,44.099236,-194.137405,23.748091
0.714600,1.862305,1.967529,70.099236,-153.541992,25.648855
-0.193359,1.621582,1.984314,66.374046,-74.961830,36.007633
-0.946289,0.927246,1.984314,27.259542,-6.022901,50.152672
-1.080566,-0.009766,1.984314,-24.076336,12.610687,53.511452
-0.589600,-0.647705,1.584961,-55.725189,-21.022902,40.763359
0.275146,-0.705811,-1.095703,-55.473282,-108.503815,17.305344
1.123047,-0.244629,-2.000000,-31.236641,-161.938934,-0.801527
1.658691,0.497803,-2.000000,0.213740,-175.854965,-5.267176
1.717041,1.162598,-1.704346,26.641222,-167.480911,-11.916031
1.334229,1.644775,0.395264,43.992367,-135.763351,-22.824427
0.676514,1.905762,1.984314,49.862595,-85.984734,-25.648855
-0.018555,1.756104,1.984314,42.381680,-30.114504,-21.931297
-0.645752,1.246338,1.984314,25.412214,13.137404,-19.244274
-1.012939,0.473145,1.984314,5.427481,30.908398,-16.877863
-0.923340,-0.254883,1.984314,-21.282442,7.419847,-20.000000
-0.416748,-0.706055,0.777832,-28.778625,-42.664124,-32.206108
0.323486,-0.697754,-1.408691,-24.748091,-102.702293,-48.076336
1.061279,-0.225586,-2.000000,-15.900764,-150.870224,-64.473282
1.538574,0.500244,-2.000000,-4.709924,-176.648849,-78.534348
1.629639,1.267822,-2.000000,6.053435,-175.618317,-88.687019
1.302979,1.872070,-0.244873,12.687023,-145.328247,-94.068703
0.670410,1.984314,1.965332,9.809160,-96.541985,-95.778625
-0.058594,1.825928,1.984314,-5.519084,-46.862595,-95.305344
-0.716797,1.110596,1.984314,-30.954199,-15.847328,-92.816795
-1.051270,0.009277,1.984314,-68.656487,-17.450382,-87.564888
-0.848633,-0.847656,1.984314,-71.671753,-56.175571,-85.427483
-0.211182,-1.208252,0.124756,-50.129772,-112.954201,-91.236641
0.604736,-0.962891,-2.000000,-25.282442,-171.717560,-102.854965
1.332764,-0.284180,-2.000000,-6.526718,-208.061066,-109.038170
1.674561,0.540527,-2.000000,11.793893,-209.755722,-102.236641
1.559326,1.171387,-1.293213,12.549619,-176.374039,-85.274811
1.032471,1.403076,1.313477,-5.732824,-119.809158,-59.351147
0.425537,1.264648,1.984314,-26.809160,-56.877861,-33.236641
-0.153564,0.785156,1.984314,-54.603054,1.603053,-15.068703
0.384033,-1.480225,-0.618896,-79.793892,41.503819,-0.793893
0.935791,-1.183350,-2.000000,-74.061066,36.946564,11.748092
1.368896,-0.534912,-2.000000,-53.015266,3.496183,20.183207
1.537354,0.241943,-2.000000,-17.610687,-44.763359,26.114504
1.364746,0.976074,-0.977051,32.099236,-87.969467,30.954199
0.893555,1.497314,1.217773,82.007637,-104.526718,35.618320
0.259277,1.654785,1.984314,112.847328,-87.137405,40.496181
-0.385254,1.321533,1.984314,111.534348,-46.335876,49.015266
-0.827881,0.604980,1.984314,80.793892,12.450381,57.664124
-0.883545,-0.097900,1.984314,35.862595,65.435112,61.091602
-0.493164,-0.524902,0.769287,-29.694656,83.183205,57.541985
0.152344,-0.692871,-1.468994,-81.297707,51.557251,44.900764
0.903076,-0.497559,-2.000000,-107.412216,-4.687023,31.167938
1.554688,0.007813,-2.000000,-99.984734,-64.145035,17.694656
1.858398,0.665283,-2.000000,-69.908394,-107.641220,5.312977
1.667969,1.255127,-0.818115,-27.106871,-123.832062,-2.274809
1.055908,1.583496,1.472412,12.877863,-112.656487,-0.931298
0.288818,1.483887,1.984314,38.015266,-79.709923,7.641222
-0.393311,1.044189,1.984314,41.977100,-34.259541,17.259542
-0.819336,0.243408,1.984314,26.610687,13.480916,25.175573
-0.791260,-0.572510,1.984314,-10.916031,60.839695,31.709923
-0.324707,-1.032471,1.040039,-38.641220,67.038170,29.793894
0.360352,-1.084229,-1.198486,-63.526718,47.206108,22.587786
1.069336,-0.796143,-2.000000,-85.206108,5.763359,14.900764
1.610596,-0.270996,-2.000000,-91.076332,-44.977100,6.786260
1.853760,0.334717,-2.000000,-74.656487,-86.251907,-0.961832
1.741455,0.915283,-0.820801,-44.885498,-103.755722,-5.984733
1.272949,1.273438,1.319092,-17.091602,-89.366409,-5.404580
0.593750,1.257813,1.984314,7.160306,-45.267174,0.801527
-0.081055,0.930176,1.984314,12.335877,27.343512,14.343512
-0.521973,0.355957,1.984314,-1.328244,70.702293,23.702290
-0.572754,-0.395996,1.984314,-29.847328,92.458015,30.015266
-0.177979,-0.953857,1.830811,-59.213741,89.114502,30.679390
0.508057,-1.107422,-0.320557,-78.183205,65.908394,24.374046
1.242676,-0.873291,-2.000000,-83.778625,30.396946,13.671756
1.791016,-0.339600,-2.000000,-72.740456,-8.343512,1.297710
1.984314,0.334961,-2.000000,-43.717556,-46.175571,-10.122137
1.974365,0.965820,-2.000000,-6.328244,-71.137405,-17.839695
1.682373,1.450928,-0.197754,36.977100,-73.351143,-21.748091
1.187988,1.710205,1.971924,84.114502,-37.664124,-21.152672
0.622314,1.657471,1.984314,108.297707,10.702291,-20.908398
0.055908,1.365723,1.984314,105.511452,68.091606,-18.450382
-0.434570,0.841064,1.984314,80.488548,114.450378,-14.366412
-0.704590,0.141846,1.984314,43.091602,133.534348,-9.534351
-0.624756,-0.455322,1.984314,7.961832,113.114502,-13.038168
-0.088135,-0.863525,0.417236,19.526718,77.687019,-21.992367
0.689697,-0.556641,-1.468506,14.801527,41.175571,-35.671757
1.332764,0.014404,-2.000000,-1.061069,19.854961,-56.236641
1.601318,0.443604,-2.000000,-27.167938,-14.412213,-69.114502
1.627686,0.684326,-2.000000,-22.625954,-58.488548,-68.465652
1.655029,1.177002,-1.110840,10.419847,-63.015266,-69.816795
1.414795,1.664063,0.673828,36.419846,-29.770992,-76.022903
0.797363,1.911621,1.984314,65.954201,26.900763,-77.312981
-0.048096,1.687012,1.984314,68.595421,70.427483,-62.824429
-0.750488,1.235596,1.984314,48.908398,94.244278,-41.244274
-1.109619,0.510254,1.984314,-0.053435,91.099236,-19.755726
-1.122314,-0.177490,1.984314,-51.709923,83.977097,-7.343512
-0.814209,-0.803955,1.489502,-96.595421,65.236641,-2.854962
-0.330811,-1.346436,-0.789307,-139.786255,27.648855,1.816794
0.254395,-1.387939,-1.916748,-119.534348,-39.671757,-1.816794
0.972168,-1.023193,-2.000000,-32.221375,-107.816795,-8.503817
1.532471,-0.232666,-2.000000,65.358780,-130.541992,-11.183207
1.640381,0.451660,-2.000000,173.832062,-116.648857,-8.251908
1.363770,1.016602,-0.109131,222.076340,-54.717556,0.473282
0.853760,1.563232,1.903809,209.969467,6.946565,10.648855
0.197510,1.748535,1.984314,177.916031,60.541985,16.213741
-0.527100,1.397461,1.984314,98.687019,99.748093,21.625954
-1.086426,0.541016,1.984314,12.137404,108.282440,32.267174
-1.160645,-0.380371,1.984314,-32.381680,89.564888,43.198475
-0.698486,-0.994629,0.843262,-55.809162,20.809160,35.328243
0.051758,-1.079102,-1.080322,-47.389313,-39.931297,12.564885
0.837891,-0.696533,-2.000000,-31.251909,-81.824425,-3.480916
1.494141,0.012939,-2.000000,-2.809160,-99.435112,-7.877862
1.797363,0.796875,-2.000000,29.396946,-93.923668,-9.778625
1.629150,1.269775,-1.342773,62.488548,-67.083969,-5.312977
1.126465,1.595459,0.641602,84.305344,-20.809160,8.511451
0.497314,1.761230,1.984314,87.282440,24.328245,21.152672
-0.121094,1.764893,1.984314,68.175575,56.862595,30.679390
-0.179443,-0.418701,0.024170,21.251909,66.259544,32.053436
0.558350,-0.352783,-1.853760,-8.236641,37.877861,21.916031
1.297363,-0.059326,-2.000000,-19.778625,-5.549618,6.541985
1.822754,0.433105,-2.000000,-17.648855,-50.480915,-5.885496
1.968689,-0.000061,-0.000061,-0.007634,-0.007634,-0.007634
1.811523,1.635254,-0.265625,-0.007634,-0.007634,-0.007634
1.213867,1.791748,1.730713,36.152672,-74.893127,-26.297710
0.390625,1.607422,1.984314,67.229004,-50.114502,-25.335878
-0.406494,1.173584,1.984314,101.083969,-11.839695,-12.358779
-0.925049,0.470215,1.984314,129.137405,25.541985,9.641221
-0.933838,-0.261719,1.984314,123.465652,67.312981,32.480915
-0.468262,-0.642090,1.414063,97.175575,78.748093,35.839695
0.204346,-0.738525,-0.707764,49.534351,75.992363,35.603054
0.963379,-0.651367,-2.000000,3.534351,45.641220,33.885498
1.576172,-0.389404,-2.000000,-4.900764,5.549618,31.129770
1.877686,0.053711,-2.000000,24.610687,-35.435116,33.282444
1.820557,0.741455,-1.746582,87.083969,-68.381676,35.541985
1.392822,1.342285,0.302734,152.618317,-79.305344,40.549618
0.754150,1.642822,1.984314,195.152664,-71.854965,44.916031
0.081543,1.669922,1.984314,193.816788,-37.740459,39.893131
-0.484619,1.307129,1.984314,138.526718,38.297710,43.160305
-0.696289,0.649170,1.984314,58.068703,72.244278,45.549618
-0.474121,-0.199707,1.659668,-21.587786,80.816795,45.717556
0.108643,-0.651611,-0.526855,-61.022900,58.595421,36.076336
0.834473,-0.604492,-2.000000,-66.977097,10.870229,19.419847
1.482910,-0.089355,-2.000000,-66.923668,-43.290077,3.984733
1.802490,0.584473,-2.000000,-58.175571,-89.022903,-0.694656
1.794189,1.318115,-2.000000,-51.458015,-123.213737,-0.755725
1.490234,1.814453,-0.439209,-47.534351,-128.839691,-1.618321
0.928711,1.759521,1.683838,-55.824429,-121.099236,1.931298
0.273926,1.308350,1.984314,-34.931297,-64.664124,8.725191
-0.322510,0.697021,1.984314,-14.961832,-14.763359,16.190840
-0.671631,0.195068,1.984314,1.748092,31.854961,24.053434
-0.677490,-0.101807,1.984314,26.610687,72.343513,33.320610
-0.374268,-0.277832,1.834961,9.076336,76.732826,37.694656
0.116699,-0.333008,-0.142090,-32.244274,54.633587,34.641220
0.731445,-0.269043,-1.956787,-71.893127,6.328244,26.167938
1.396484,0.007813,-2.000000,-86.022903,-44.610687,7.435114
1.834717,0.441650,-2.000000,-71.679390,-88.015266,-11.152672
1.929688,1.046631,-2.000000,-33.419846,-102.656487,-20.923664
1.648193,1.524414,-0.807373,-0.183206,-87.534348,-15.595420
1.093994,1.713623,1.308350,-2.900763,-57.839695,-5.305344
0.449951,1.554932,1.984314,-15.038168,-13.175572,5.045802
-0.128174,1.225098,1.984314,-31.030535,35.106869,11.870229
-0.531982,0.767578,1.984314,-44.229008,76.541985,15.312977
-0.649170,0.123291,1.984314,-76.946564,95.137405,18.893129
-0.450684,-0.459473,1.984314,-116.473282,90.236641,19.244274
-0.007080,-0.854980,0.268066,-143.251907,63.488548,16.557251
0.547607,-0.957031,-1.551758,-148.603058,23.847328,11.412213
1.121582,-0.679443,-2.000000,-126.236641,-42.801525,2.259542
1.661377,-0.002441,-2.000000,-93.396950,-70.984734,-4.786260
1.917969,0.768799,-2.000000,-77.496185,-88.328247,-13.870229
1.839600,1.366943,-1.959473,-67.137405,-93.473282,-19.954199
1.475342,1.688721,-0.154785,-61.984734,-83.748093,-18.641222
0.956543,1.713135,1.850830,-55.183205,-63.343510,-12.541985
0.421143,1.460938,1.984314,-49.473282,-21.213741,-4.343512
-0.114746,1.005615,1.984314,-57.641220,27.770992,6.618320
-0.477783,0.676025,1.984314,-57.374046,70.183205,13.656488
-0.648926,0.256836,1.984314,-74.900764,96.000000,16.145039
-0.598633,-0.256836,1.984314,-112.091606,72.274811,14.435115
-0.270264,-0.681641,0.803711,-129.908401,30.580153,9.038168
0.306396,-0.773193,-1.051514,-129.305344,-16.335878,0.083969
0.983887,-0.600098,-2.000000,-113.709923,-59.442749,-11.068703
1.582764,-0.303711,-2.000000,-82.396950,-84.007637,-21.145039
1.965088,0.242920,-2.000000,-39.694656,-86.045799,-25.595419
1.984314,0.903076,-2.000000,-7.030534,-75.213737,-26.946566
1.877197,1.379883,-0.834473,8.954199,-52.938931,-25.923664
1.422363,1.561523,1.059082,15.435115,-20.610687,-21.290077
0.875732,1.475342,1.984314,17.068703,20.137405,-14.519084
0.309082,1.182129,1.984314,1.725191,78.656487,-4.832061
-0.221436,0.749512,1.984314,-15.938931,105.274811,-0.526718
-0.593018,0.221924,1.984314,-36.015266,108.824425,2.061069
-0.648193,-0.282959,1.984314,-52.687023,88.709923,0.671756
-0.377930,-0.666016,1.811035,-61.854961,47.816795,-5.244275
0.122314,-0.851074,-0.139648,-54.847328,-0.305344,-14.633588
0.731445,-0.771729,-1.858398,-32.633587,-42.992367,-24.625954
1.304443,-0.416016,-2.000000,-0.954198,-70.381676,-32.625954
1.724121,0.097412,-2.000000,29.534351,-82.442749,-36.893131
1.898682,0.664795,-2.000000,51.038166,-74.832062,-37.366413
-0.062256,1.210938,1.984314,69.702293,-35.404579,-30.641222
-0.570557,0.698486,1.984314,66.847328,3.648855,-22.427481
-0.844727,0.066162,1.984314,51.900764,44.412212,-13.213740
-0.773437,-0.511475,1.984314,27.549618,77.938934,-3.099237
-0.407227,-0.874756,0.982178,-0.175573,97.122139,4.870229
0.138672,-0.955078,-0.981689,-26.320610,94.916031,9.068703
0.777832,-0.754639,-2.000000,-46.000000,71.679390,9.992367
1.362549,-0.329590,-2.000000,-55.374046,32.259541,7.244275
1.737061,0.231689,-2.000000,-51.473282,-15.793893,2.145038
1.821533,0.814453,-2.000000,-34.396946,-60.549618,-3.030534
1.605225,1.317383,-0.375244,3.328244,-95.793892,-8.305344
1.150635,1.606689,1.561035,30.717558,-94.847328,-8.572519
0.585937,1.551025,1.984314,52.099236,-73.114502,-6.435114
0.009033,1.247314,1.984314,62.175571,-36.045803,-2.152672
-0.441162,0.734375,1.984314,57.488548,9.832061,3.221374
-0.654785,0.110840,1.984314,39.717556,53.236641,9.061069
-0.587158,-0.466309,1.984314,14.343512,84.374046,14.167939
-0.233643,-0.820068,0.981445,-12.221375,94.305344,16.152672
0.270020,-0.932617,-0.844727,-35.587788,82.664124,13.671756
0.873779,-0.796631,-2.000000,-53.427483,37.534351,5.740458
1.428955,-0.416016,-2.000000,-50.389313,-2.007634,-1.267176
1.825928,0.134521,-2.000000,-37.045803,-39.396946,-8.465649
1.973633,0.749023,-2.000000,-17.870230,-68.076332,-14.526717
1.835938,1.259033,-1.028809,3.770992,-82.580154,-18.778625
1.443604,1.607666,0.818604,24.595419,-80.839691,-20.603054
0.902344,1.665527,1.984314,41.427483,-57.526718,-19.984734
0.311279,1.466797,1.984314,49.404579,-19.954199,-17.076336
-0.274414,1.020996,1.984314,45.206108,24.900763,-11.000000
-0.656494,0.427490,1.984314,30.778625,62.488548,-2.969466
-0.748291,-0.171387,1.984314,-1.419847,95.877861,6.320611
-0.531982,-0.630615,1.984314,-24.610687,96.106873,9.679389
-0.087646,-0.884521,0.412354,-42.717556,79.427483,9.748092
0.483643,-0.890869,-1.274170,-50.419846,48.022900,6.610687
1.087158,-0.603516,-2.000000,-47.603054,8.473283,1.106870
1.585205,-0.136963,-2.000000,-38.244274,-30.244274,-5.709924
1.885986,0.431641,-2.000000,-21.664122,-63.427483,-12.236641
1.946777,0.967773,-2.000000,-0.732824,-84.862595,-17.824427
1.736084,1.381836,-0.518555,20.702290,-86.816795,-21.022902
1.275879,1.597656,1.303223,40.412212,-70.618324,-20.511450
0.706543,1.571777,1.984314,55.671757,-20.610687,-13.534351
0.115967,1.333740,1.984314,52.007633,19.404581,-5.923664
-0.401367,0.902100,1.984314,35.885498,56.328243,1.778626
-0.730469,0.322754,1.984314,10.916031,81.038170,8.114504
-0.751709,-0.256592,1.984314,-16.977098,87.137405,10.931297
-0.456543,-0.663574,1.772461,-41.114502,73.305344,9.633588
0.025879,-0.838867,-0.106445,-56.961834,44.435116,4.664122
0.598389,-0.785156,-1.765625,-61.351147,7.053435,-1.580153
1.193848,-0.457764,-2.000000,-51.541985,-34.709923,-8.366412
1.670898,0.055420,-2.000000,-30.748091,-71.312981,-14.496183
1.896973,0.642578,-2.000000,8.404580,-96.519081,-19.458015
1.832031,1.183105,-1.432373,33.587788,-87.694656,-18.770992
1.458008,1.539063,0.498779,49.595421,-58.717556,-14.435115
0.879395,1.586426,1.984314,53.870228,-16.404581,-7.816794
0.243652,1.345459,1.984314,45.656490,27.786259,-0.541985
-0.326904,0.893555,1.984314,26.648855,64.282440,6.610687
-0.697510,0.323242,1.984314,1.312977,85.709923,11.908397
-0.754883,-0.280273,1.984314,-24.312977,87.358780,13.809160
-0.486084,-0.734863,1.798340,-44.236641,68.206108,12.305344
0.012695,-0.903564,-0.241943,-54.038166,32.702290,7.709924
0.614502,-0.786133,-1.972656,-47.137405,-28.992367,-2.213740
1.196045,-0.400146,-2.000000,-29.656488,-64.694656,-8.778625
1.649414,0.117920,-2.000000,-8.595420,-87.679390,-13.961832
1.882813,0.693359,-2.000000,14.526717,-91.793892,-16.076336
1.823242,1.209717,-1.607422,33.984734,-76.351143,-14.709924
1.477783,1.525391,0.280762,45.992367,-44.809162,-10.671756
0.954834,1.583252,1.984314,48.679390,-4.725191,-4.534351
0.371582,1.383545,1.984314,41.083969,37.450382,3.213740
-0.196045,0.997559,1.984314,24.045801,72.564888,10.404580
-0.608154,0.479980,1.984314,-11.870229,94.763359,16.648855
-0.770996,-0.075928,1.984314,-34.374046,85.152672,16.870230
-0.630371,-0.550537,1.984314,-50.587788,58.129772,13.152672
-0.257080,-0.818115,0.728516,-58.007633,18.473282,6.534351
0.264160,-0.863037,-1.027344,-55.122139,-22.770992,-0.877863
0.845215,-0.666748,-2.000000,-42.099236,-58.610687,-7.854962
1.397461,-0.257080,-2.000000,-20.977098,-81.832062,-13.198473
1.772949,0.252197,-2.000000,4.061069,-89.473282,-15.877863
1.913086,0.774170,-2.000000,28.526718,-79.984734,-15.236641
1.798340,1.227295,-1.206543,46.419846,-53.786259,-11.267176
-0.573486,0.536865,1.984314,53.954197,4.328244,-1.183206
-0.749023,-0.004395,1.984314,45.419846,44.419846,6.931298
-0.631348,-0.499756,1.984314,27.068703,76.687019,13.916031
-0.281006,-0.785156,1.119629,3.358779,94.061066,18.389313
0.207764,-0.856934,-0.632812,-21.625954,94.190842,18.847328
0.772705,-0.723633,-2.000000,-41.801525,77.580154,15.740458
1.325439,-0.353760,-2.000000,-54.305344,47.549618,9.641221
1.746826,0.136963,-2.000000,-56.412212,9.366412,1.557252
1.944824,0.651611,-2.000000,-48.396946,-28.404581,-6.618320
1.895752,1.093018,-1.668701,-31.717558,-59.320610,-13.045801
1.634033,1.431641,-0.092041,3.374046,-85.709923,-19.175573
1.198486,1.580811,1.625977,27.793894,-82.854965,-20.419847
0.676025,1.526611,1.984314,48.083969,-62.213741,-18.404581
0.124512,1.268799,1.984314,59.557251,-28.618320,-14.305344
-0.356934,0.875977,1.984314,59.007633,10.549619,-8.442748
-0.676758,0.367188,1.984314,46.870228,50.190838,-1.694656
-0.755127,-0.154297,1.984314,27.038168,81.328247,4.251908
-0.571289,-0.559814,1.984314,4.381680,100.534348,7.709924
-0.216309,-0.843506,0.784424,-18.297710,106.244278,8.519084
0.237305,-0.928467,-0.831055,-36.106869,96.618324,7.167939
0.755615,-0.774658,-2.000000,-50.824429,55.297710,0.977099
1.275391,-0.388428,-2.000000,-50.854961,15.595420,-6.045802
1.671143,0.136719,-2.000000,-42.984734,-25.908398,-14.198473
1.846191,0.686035,-2.000000,-28.366413,-61.488548,-20.847328
1.789551,1.165039,-1.552002,-7.503817,-83.923668,-24.801527
1.481201,1.522705,0.168701,15.877863,-89.251907,-26.381680
0.981445,1.703857,1.942139,36.938931,-73.824425,-25.229008
0.406250,1.602783,1.984314,48.526718,-42.633587,-20.610687
-0.155762,1.291016,1.984314,48.427483,-2.748092,-13.190840
-0.614502,0.784912,1.984314,37.740459,37.900764,-4.633588
-0.869629,0.186279,1.984314,8.732824,84.297707,6.496183
-0.837158,-0.314453,1.984314,-16.335878,98.190842,10.954199
-0.535400,-0.761719,1.650391,-41.114502,94.328247,12.290076
-0.063477,-1.010498,-0.081543,-59.938931,72.595421,10.816793
0.500488,-0.987305,-1.620361,-63.435116,41.572517,5.091603
1.051025,-0.709229,-2.000000,-58.702290,2.519084,-2.000000
1.506348,-0.231445,-2.000000,-43.427483,-35.221375,-9.725191
1.787842,0.383301,-2.000000,-22.671755,-69.229004,-15.519084
1.854492,1.009521,-2.000000,-1.198473,-90.473282,-19.488550
1.659668,1.471924,-0.671875,28.083969,-85.793892,-21.351145
1.208252,1.740967,1.107422,38.679390,-61.946564,-19.213741
0.642090,1.729980,1.984314,42.809162,-28.190840,-13.503817
0.071045,1.487061,1.984314,38.763359,11.229008,-5.374046
-0.429687,1.054688,1.984314,26.572519,48.648853,2.488550
-0.785400,0.462891,1.984314,9.984733,78.488548,9.488549
-0.909668,-0.109375,1.984314,-10.091603,93.381676,14.450381
-0.765381,-0.573486,1.984314,-31.389313,89.221375,16.641222
-0.407471,-0.927979,0.946533,-48.183205,70.755722,15.061069
0.087402,-1.055420,-0.687744,-55.969467,38.190838,11.068703
0.659424,-0.920898,-2.000000,-50.381680,-21.366413,0.145038
1.213867,-0.544922,-2.000000,-35.251907,-57.984734,-7.183206
1.636963,-0.003418,-2.000000,-15.816793,-88.099236,-13.282443
1.851074,0.584961,-2.000000,6.152672,-102.129768,-16.496183
1.825684,1.111328,-1.808350,26.824427,-100.839691,-16.274809
1.560059,1.477783,-0.226807,43.167938,-81.778625,-13.244275
1.086182,1.666260,1.506592,51.717556,-47.633587,-7.519084
0.502686,1.591309,1.984314,50.839695,-5.938931,1.083969
-0.074951,1.306152,1.984314,40.503819,34.633587,10.946565
-0.571533,0.832275,1.984314,23.442749,65.961830,19.763359
-0.861816,0.248535,1.984314,-7.664122,84.809158,26.595419
-0.875244,-0.301270,1.984314,-27.083969,73.877861,27.091602
-0.607666,-0.746338,1.665527,-42.297710,45.694656,24.106871
-0.131836,-0.954834,-0.147705,-47.984734,6.251908,18.809160
0.480713,-0.883057,-1.838623,-40.625954,-38.251907,10.885496
1.107910,-0.544189,-2.000000,-21.587786,-75.022903,2.564885
1.582275,-0.034912,-2.000000,3.610687,-97.748093,-3.335878
1.811279,0.546631,-2.000000,27.442749,-100.748093,-4.519084
1.733154,1.059570,-1.784912,46.045803,-84.580154,-0.679389
1.359863,1.397217,0.005615,56.793892,-52.572517,7.977099
0.796631,1.542725,1.769287,56.564884,6.916030,22.381680
0.151855,1.372314,1.984314,48.312977,45.870228,33.709923
-0.498779,1.010986,1.984314,35.770992,78.114502,46.625954
-0.991699,0.487793,1.984314,25.404581,82.396950,58.984734
-1.190918,-0.146240,1.984314,12.122137,51.061069,66.961830
-1.036865,-0.639404,1.867676,7.267176,2.916031,64.427483
-0.687500,-0.984863,-0.066895,-0.992366,-55.557251,59.076336
-0.246582,-1.104492,-1.959961,-14.229008,-116.458015,60.946564
0.260742,-1.020264,-2.000000,-18.641222,-186.053436,69.709923
0.837646,-0.639404,-2.000000,5.641222,-250.137405,78.885498
0.482178,1.327148,1.984314,60.229008,-250.137405,82.641220
0.576660,1.146484,1.984314,95.908394,-250.137405,75.595421
0.890137,0.752197,1.984314,91.732826,-250.137405,87.000000
1.409424,0.450928,1.984314,74.099236,-0.007634,-0.007634
1.655518,-0.014648,1.984314,64.404579,45.977100,73.114502
1.527344,-0.668701,1.984314,46.801525,117.816795,49.870228
1.370850,-1.050293,1.984314,42.206108,147.206100,32.916031
1.502930,-0.872070,0.369141,43.580154,147.473282,18.961832
1.850830,-0.369873,-1.431885,33.526718,123.396950,4.740458
1.984314,0.178467,-2.000000,12.717557,80.633591,-4.419847
1.984314,0.740967,-2.000000,0.625954,53.793892,-8.175572
1.984314,1.339600,-2.000000,-17.343512,8.160305,-32.473282
1.970703,1.753174,-2.000000,-35.900764,-61.137405,-55.534351
1.712402,1.898438,-0.409424,-41.160305,-109.129768,-44.839695
1.467773,1.851807,1.434326,-28.335878,-108.244278,-21.045801
1.105225,1.662842,1.984314,3.748092,-76.030533,-11.763359
0.597656,1.341797,1.984314,37.244274,-21.648855,-11.534351
0.072266,0.958496,1.984314,60.694656,38.923664,-9.549619
-0.285400,0.534912,1.984314,69.152672,84.473282,-9.374045
-0.393555,0.069092,1.984314,40.870228,128.702286,-8.526717
-0.243896,-0.410400,1.984314,5.122138,140.007629,-9.419847
0.129883,-0.731201,0.522705,-27.709923,135.824432,-12.725191
0.611328,-0.829346,-1.229492,-51.328243,115.717560,-20.091602
1.123047,-0.716064,-2.000000,-63.129772,82.625954,-28.083969
1.585693,-0.359863,-2.000000,-64.190842,44.053436,-35.595421
1.896240,0.155273,-2.000000,-55.496181,5.030534,-45.755726
1.979004,0.696289,-2.000000,-38.770992,-26.587786,-55.427483
1.818359,1.150146,-1.245850,-16.763359,-41.297710,-59.587788
1.435059,1.513184,0.504395,7.580153,-37.908398,-60.946564
0.898926,1.641357,1.984314,33.007633,-1.007634,-57.595421
0.300293,1.483887,1.984314,34.961834,40.221375,-52.725189
-0.269775,1.143799,1.984314,23.694656,83.465652,-47.641220
-0.682129,0.616455,1.984314,2.129771,118.312981,-43.038166
-0.862061,-0.006348,1.984314,-27.076336,138.916031,-40.488548
-0.763916,-0.553223,1.984314,-53.412212,143.534348,-39.175571
-0.416016,-0.952881,0.899170,-73.190842,131.946564,-39.961834
0.095215,-1.083008,-0.772461,-78.832062,107.106873,-45.404579
0.649902,-0.935791,-2.000000,-75.320610,72.816795,-54.564884
1.149414,-0.538330,-2.000000,-63.473282,33.877861,-63.450382
1.495850,0.010986,-2.000000,-37.335876,-21.984734,-71.709923
1.648926,0.630127,-2.000000,-15.587787,-48.137405,-71.732826
1.584961,1.187744,-1.791260,5.671756,-59.618320,-68.694656
1.282959,1.567383,-0.175537,23.129770,-52.893131,-63.038166
0.767578,1.712891,1.573730,34.236641,-27.137405,-54.099236
0.169678,1.568359,1.984314,35.793892,9.870229,-42.229008
-0.418701,1.191162,1.984314,26.679390,47.000000,-28.335878
-0.864746,0.627441,1.984314,10.854961,74.557251,-16.847328
-1.057617,-0.046875,1.984314,-10.641221,87.709923,-8.900764
-0.931885,-0.616943,1.984314,-31.564886,86.564888,-4.198473
-0.556396,-1.018799,0.874023,-53.969467,53.251907,-8.007633
-0.015869,-1.156738,-0.961426,-58.664124,12.740458,-10.870229
0.625000,-0.990479,-2.000000,-50.488548,-34.793892,-9.870229
1.241943,-0.508301,-2.000000,-34.389313,-76.625954,-16.450382
1.623535,0.100342,-2.000000,-16.496183,-105.160309,-24.259542
1.700928,0.699707,-2.000000,1.335878,-113.374046,-20.488550
1.493164,1.164063,-1.409912,11.198473,-104.007637,-8.633588
1.047607,1.407471,0.355469,15.160305,-79.068703,5.511450
0.498047,1.415283,1.984314,19.106871,-50.755726,18.145039
-0.027588,1.162598,1.984314,9.396947,-4.251908,32.068703
-0.500000,0.742920,1.984314,2.450382,20.053434,39.236641
-0.883789,0.157471,1.984314,-12.480916,35.778625,47.603054
-1.138916,-0.476074,1.984314,-25.251909,43.809162,63.206108
-1.143311,-0.931152,1.906738,-19.412214,26.366413,82.305344
-0.825684,-1.005615,-0.048340,7.625954,-32.106869,91.015266
-0.300537,-0.794922,-1.902832,17.656488,-106.190842,80.259544
0.248047,-0.515625,-2.000000,-18.022902,-183.312973,66.480919
0.877197,-0.190186,-2.000000,-59.541985,-250.137405,60.007633
1.609619,0.078369,-2.000000,-68.473282,-250.137405,64.068703
1.984314,0.420898,-1.471924,-29.244274,-250.137405,80.763359
1.984314,0.806641,0.157471,-6.763359,-250.137405,101.900764
1.984314,1.207031,1.926270,16.183207,-153.603058,114.755722
1.984314,1.357666,1.984314,30.267176,-15.412213,48.389313
1.984314,1.274902,1.984314,24.839695,53.977100,42.603054
1.271240,1.136963,1.984314,28.465649,96.450378,52.091602
0.770996,0.777832,1.984314,27.671755,110.007637,25.496183
0.432373,0.468262,1.984314,29.572519,115.709923,-8.511451
0.215088,0.192627,1.984314,30.030535,131.938934,-26.969465
0.132324,-0.033691,1.984314,19.381680,133.793900,-28.900763
1.984314,1.106934,-2.000000,-10.961832,62.595421,-21.885496
1.984314,1.522461,-2.000000,-39.358780,-19.152672,-15.488549
1.984314,1.735596,-0.797607,-48.129772,-82.145035,-16.786259
1.749512,1.750488,1.219238,-29.190840,-108.977097,-22.824427
1.230225,1.641846,1.984314,7.961832,-83.206108,-34.374046
0.574219,1.340332,1.984314,41.145039,-39.305344,-35.778625
-0.026367,0.910889,1.984314,59.961834,2.961832,-26.679390
-0.384766,0.362793,1.984314,61.076336,40.717556,-16.328245
-0.447998,-0.185059,1.984314,55.488548,73.427483,-7.007634
-0.227295,-0.664062,1.984314,31.877863,106.374046,5.335878
0.159912,-0.994141,0.562744,-1.916031,129.045807,9.725191
0.599609,-1.106934,-1.125732,-18.595419,122.595421,5.312977
1.061523,-0.964355,-2.000000,-26.198473,101.351143,-1.259542
1.513672,-0.587891,-2.000000,-24.755726,64.519081,-8.351145
1.843750,-0.041992,-2.000000,-16.229008,21.465649,-14.572519
1.978027,0.587891,-2.000000,-3.778626,-15.580153,-20.938931
1.882324,1.182373,-1.608154,9.946565,-38.610687,-27.190840
1.510986,1.626709,0.040283,23.725191,-44.931297,-33.320610
0.936279,1.781738,1.726807,31.946566,-37.473282,-36.725189
0.310791,1.604736,1.984314,34.183205,-17.389313,-35.847328
-0.248291,1.190674,1.984314,27.343512,30.870230,-28.061069
-0.652588,0.586426,1.984314,11.977099,64.267174,-21.969465
-0.839355,-0.105469,1.984314,-6.893130,96.335876,-16.114504
-0.763184,-0.681885,1.984314,-24.946566,109.488548,-0.007634
-0.460693,-1.091309,1.131592,-41.435116,124.045799,-6.511450
0.005127,-1.211426,-0.597900,-56.862595,110.923668,-4.251908
0.538818,-1.062744,-2.000000,-66.961830,81.832062,-4.786260
1.057861,-0.715576,-2.000000,-72.358780,41.877861,-8.885496
1.479492,-0.212891,-2.000000,-67.213737,1.106870,-14.694656
1.726074,0.358643,-2.000000,-42.862595,-47.923664,-25.290077
1.748291,0.916260,-2.000000,-19.297710,-64.580154,-32.633587
1.514648,0.249939,-0.000061,-0.007634,-0.007634,-0.007634
1.074219,1.605713,0.757080,25.198473,-47.740459,-37.648853
0.501709,1.616943,1.984314,38.061069,-21.244274,-33.106869
-0.072754,1.383057,1.984314,41.793892,15.183207,-26.320610
-0.609619,0.953369,1.984314,30.465649,53.641220,-18.297710
-1.003906,0.325439,1.984314,14.137404,89.862595,1.793893
-1.130127,-0.318848,1.984314,-10.152672,110.877861,14.320611
-0.949951,-0.826660,1.984314,-33.183205,110.374046,11.618320
-0.552490,-1.165527,0.281982,-55.419846,71.160309,0.564885
-0.025146,-1.261963,-1.455322,-60.687023,26.809160,-3.984733
0.529541,-1.069824,-2.000000,-63.503819,-19.229008,-1.083969
0.998535,-0.656250,-2.000000,-56.320610,-64.832062,5.755725
1.269775,-0.200439,-2.000000,-37.847328,-106.916031,17.083969
1.310059,0.302246,-2.000000,-0.870229,-136.977097,33.679390
1.144043,0.930420,-2.000000,49.061069,-149.786255,47.366413
0.804443,1.543457,-0.369385,97.351143,-152.618317,49.671757
0.343750,1.920166,1.330078,109.160309,-161.442749,49.816795
-0.191162,1.871582,1.984314,82.931297,-137.290070,56.435116
-0.754395,1.336670,1.984314,27.076336,-93.610687,80.427483
-1.007080,0.586670,1.984314,-3.076336,-114.519081,101.755722
-0.678223,-0.195312,1.984314,-8.809160,-157.694656,108.763359
0.329346,-0.779541,1.984314,-34.183205,-157.083969,107.076332
1.457764,-0.990234,1.984314,-62.351147,-99.702293,137.679382
1.984314,-0.905029,1.191406,-61.572517,-24.152672,82.183205
1.984314,-1.306152,-0.143311,-78.229004,-23.877863,7.862596
1.984314,-1.090820,-1.130615,-49.671757,-24.885496,23.343512
1.984314,-0.679932,-2.000000,-9.229008,0.412214,-2.916031
1.984314,-0.095215,-2.000000,39.587788,-31.503817,-55.160305
1.984314,0.767578,-2.000000,100.450378,-38.862595,-76.618324
1.984314,1.684570,-2.000000,134.229004,5.030534,-70.916031
1.930420,1.984314,-0.756592,127.564888,33.702290,-47.351147
1.260010,1.984314,1.157715,85.938934,39.564884,-22.900763
0.635498,1.984314,1.984314,29.717558,38.221375,-8.519084
0.159180,1.515869,1.984314,-21.213741,49.664124,-0.053435
-0.153809,0.745850,1.984314,-53.137405,75.435112,3.709924
-0.306396,-0.001953,1.984314,-68.396950,97.259544,-1.007634
-0.261719,-0.606689,1.984314,-71.114502,97.610687,-8.366412
0.009033,-0.963135,1.517822,-66.572517,73.145035,-11.923664
0.468750,-1.041504,-0.235596,-58.519085,24.427481,-17.641222
1.055908,-0.898193,-1.779053,-44.305344,-14.396947,-24.809160
1.654053,-0.568115,-2.000000,-26.656488,-49.290077,-37.442749
1.984314,-0.109375,-2.000000,0.618321,-60.793892,-45.778625
1.984314,0.437500,-2.000000,31.641222,-48.778625,-44.954197
1.984314,0.964111,-2.000000,52.725189,-19.022902,-40.809162
1.984314,1.417236,-0.534424,59.534351,17.778625,-39.122139
1.537109,1.678955,1.150391,56.541985,57.656490,-39.625954
0.937256,1.682129,1.984314,34.931297,94.038170,-33.755726
-0.436279,-0.622803,1.984314,0.229008,141.740463,-25.450382
-0.118896,-0.979248,0.686523,-25.320610,157.145035,-23.847328
0.325928,-1.074707,-0.957031,-45.030533,154.694656,-24.480917
0.845703,-0.901123,-2.000000,-59.328243,131.290070,-27.099237
1.353760,-0.508789,-2.000000,-70.305344,93.824425,-32.167938
1.717773,0.057373,-2.000000,-72.885498,51.022900,-38.908398
1.832764,0.667969,-2.000000,-65.366409,7.984733,-46.900764
1.681396,1.187256,-1.594482,-51.954197,-28.633587,-52.770992
1.298340,1.520996,0.094238,-33.824429,-51.549618,-54.824429
0.763428,1.631592,1.741211,-13.946565,-59.038166,-52.648853
0.181152,1.465088,1.984314,8.038168,-33.251907,-44.000000
-0.359619,1.100586,1.984314,14.374045,-1.343511,-32.854961
-0.760986,0.571533,1.984314,12.610687,38.259541,-23.030535
-0.973633,-0.010742,1.984314,4.221374,74.343513,-12.984733
-0.919189,-0.552734,1.984314,-10.290076,96.847328,-4.702290
-0.621582,-0.970947,1.465576,-26.572519,109.717560,2.801527
-0.157715,-1.146484,-0.196777,-40.099236,106.076332,5.435114
0.387451,-1.090820,-1.731689,-49.114502,85.954201,2.603053
0.918701,-0.807373,-2.000000,-49.595421,55.038166,-4.274809
1.352783,-0.341797,-2.000000,-42.435116,17.404581,-10.793893
1.629639,0.264893,-2.000000,-22.603054,-38.549618,-19.480917
1.676025,0.858154,-2.000000,-7.648855,-67.595421,-21.091602
1.475586,1.333008,-1.094727,9.122137,-84.267174,-23.091602
1.057861,1.593750,0.649170,26.809160,-84.656487,-21.832062
0.541992,1.623779,1.984314,42.068703,-66.900764,-15.725191
-0.007324,1.393555,1.984314,51.564884,-32.977100,-6.793893
-0.529297,0.988281,1.984314,50.717556,7.786260,0.885496
-0.935791,0.412354,1.984314,40.778625,44.198475,8.221375
-1.136230,-0.236328,1.984314,24.603054,68.038170,19.488550
-1.050537,-0.724365,1.984314,-4.015267,73.419846,28.572519
-0.696289,-1.051025,0.602783,-36.541985,51.129772,40.793892
-0.168213,-1.196289,-1.118652,-50.572517,9.358779,44.366413
0.430420,-1.080322,-2.000000,-48.328243,-34.267174,44.389313
1.020020,-0.734375,-2.000000,-27.099237,-83.938934,42.198475
1.492188,-0.141602,-2.000000,8.778625,-123.381676,37.435116
1.675049,0.554199,-2.000000,43.557251,-153.427475,36.053436
1.555176,1.262939,-1.759033,75.572517,-162.198471,37.259541
1.148926,1.736328,-0.105957,93.328247,-170.114502,44.832062
0.605225,1.821777,1.806885,92.007637,-157.954193,57.083969
0.105713,1.431396,1.984314,74.374046,-145.702286,69.984734
-0.213135,0.800049,1.984314,25.541985,-125.595421,83.702293
-0.185547,0.177002,1.984314,-24.770992,-99.641220,115.870232
0.173828,-0.414062,1.984314,-48.519085,-64.038170,123.358780
0.718506,-0.800781,1.984314,-55.877861,-21.458015,119.320610
1.371582,-0.881348,1.984314,-53.396946,16.427481,74.748093
1.581543,-1.047607,0.547119,-61.374046,19.778625,33.198475
1.791016,-0.828125,-0.999268,-63.190838,13.931297,36.083969
1.984314,-0.537598,-2.000000,-49.618320,-13.221375,17.610687
1.984314,-0.094971,-2.000000,-7.541985,-56.160305,-19.229008
1.984314,0.633301,-2.000000,59.641220,-81.870232,-47.740459
1.984314,1.440430,-2.000000,108.900764,-54.687023,-51.137405
1.984314,1.984314,-1.250488,119.145035,-13.564885,-35.374046
1.697021,1.984314,0.544678,84.946564,14.145039,-16.381680
1.013184,1.984314,1.984314,33.526718,18.343512,-3.763359
0.476074,1.482666,1.984314,-9.564885,20.732824,4.381680
0.138916,0.881348,1.984314,-34.076336,44.374046,6.480916
-0.041992,0.245850,1.984314,-38.427483,75.793892,5.473282
-0.047363,-0.296387,1.984314,-29.206106,100.274811,1.526718
0.055420,-0.695068,1.984314,-21.877863,121.664124,0.312977
0.284668,-0.888428,1.031494,-22.694656,93.503815,-0.572519
0.687256,-0.891357,-0.746826,-24.687023,54.954197,-9.083969
1.183594,-0.719971,-2.000000,-22.435114,6.396946,-27.122137
1.719727,-0.415527,-2.000000,-10.374045,-29.541985,-43.160305
1.984314,0.003418,-2.000000,3.404580,-41.038166,-46.129772
1.984314,0.514160,-2.000000,21.580153,-30.503817,-46.900764
1.984314,0.989258,-1.715820,35.305344,-11.877863,-45.618320
1.640869,1.372559,-0.121338,47.908398,12.725191,-41.641220
1.125000,1.592773,1.494385,48.412212,44.389313,-35.809162
0.537109,1.520508,1.984314,39.167938,82.725189,-29.145039
-0.029053,1.244141,1.984314,12.923664,129.755722,-19.687023
-0.486572,0.770264,1.984314,-12.244275,144.435120,-16.106871
-0.768066,0.158203,1.984314,-38.083969,143.694656,-16.541985
-0.800049,-0.426025,1.984314,-58.442749,124.335876,-20.068703
-0.576172,-0.907959,1.647461,-69.679390,89.625954,-25.732824
-0.151123,-1.183594,-0.083496,-69.992363,44.007633,-32.053436
0.385254,-1.198242,-1.597656,-63.557251,3.030534,-37.419846
0.957031,-0.959717,-2.000000,-42.221375,-30.381680,-38.564884
1.463379,-0.489258,-2.000000,-13.595420,-51.244274,-41.854961
1.804688,0.126709,-2.000000,13.496183,-47.274811,-44.419846
0.209717,1.422363,1.984314,42.152672,-12.725191,-42.549618
-0.360840,1.080078,1.984314,50.656490,28.648855,-37.702290
-0.818115,0.522949,1.984314,48.473282,70.938934,-31.053434
-1.024658,-0.087402,1.984314,36.938931,107.190842,-24.679390
-0.941895,-0.596436,1.984314,16.053434,134.267181,-19.099237
-0.608398,-0.990967,0.907959,0.374046,148.854965,-21.671755
-0.185303,-1.161865,-0.886230,-20.503817,146.374039,-28.297710
0.278809,-1.070068,-2.000000,-39.328243,130.870224,-20.068703
0.761475,-0.700684,-2.000000,-57.045803,95.290077,-15.435115
1.162109,-0.215332,-2.000000,-65.488548,40.564884,-16.610687
1.414795,0.324707,-2.000000,-55.885498,-35.473282,-20.442749
1.482910,0.844971,-2.000000,-38.251907,-74.641220,-17.763359
1.319336,1.270508,-0.930664,-12.396947,-97.809158,-14.923664
0.966064,1.517578,0.785645,17.656488,-105.396950,-12.526717
0.514160,1.561768,1.984314,46.122139,-96.641220,-10.412213
0.038086,1.421631,1.984314,66.786263,-74.450378,-6.908397
-0.471436,1.130615,1.984314,63.633587,-44.709923,-0.374046
-0.905518,0.618652,1.984314,53.557251,-14.007633,19.458015
-1.143555,-0.040039,1.984314,34.755726,6.160306,38.740459
-1.086914,-0.632812,1.984314,2.534351,19.717558,58.038166
-0.667236,-1.029785,0.888184,1.572519,-2.702290,68.671753
-0.038086,-1.120117,-1.002930,3.557252,-39.328243,69.099236
0.575684,-0.904541,-2.000000,14.221375,-58.862595,63.687023
1.000488,-0.430420,-2.000000,38.145039,-75.885498,59.816795
0.990234,-0.013672,-2.000000,26.022902,-172.587784,74.404579
0.628662,1.752441,1.875244,45.870228,-247.122131,73.885498
0.494141,1.530518,1.984314,19.870230,-242.007629,91.427483
0.565430,1.116699,1.984314,-3.335878,-186.419846,95.106873
0.817383,0.512451,1.984314,-48.519085,-120.534348,106.091606
1.247070,-0.074463,1.984314,-79.083969,-33.458015,58.656490
1.241943,-0.760498,1.984314,-84.519081,15.977099,14.641221
1.162598,-1.035889,1.984314,-56.778625,67.603050,25.458015
1.301270,-0.916504,1.932617,-1.877863,111.419846,31.122137
1.533447,-0.594971,-0.362793,22.312977,88.229004,5.496183
1.709961,-0.223877,-2.000000,25.442749,82.519081,-37.709923
1.746094,0.236572,-2.000000,31.198473,71.045799,-46.305344
1.841553,0.741211,-2.000000,18.641222,24.038168,-27.007633
1.981445,1.197266,-2.000000,-10.488549,-40.190838,-9.732824
1.984314,1.458496,-2.000000,-17.076336,-96.076332,-4.450382
1.965576,1.520752,-0.231201,-17.229008,-110.091606,-4.496183
1.681641,1.528809,1.529053,1.404580,-89.702293,-9.091603
1.238770,1.413818,1.984314,28.938931,-34.541985,-9.717557
0.711914,1.210693,1.984314,54.412212,30.435114,-1.183206
0.209961,0.959229,1.984314,67.458015,81.969467,10.290076
-0.129639,0.583252,1.984314,61.748093,116.862595,15.015267
-0.278076,0.117920,1.984314,33.396946,139.404587,16.610687
-0.204834,-0.366455,1.984314,3.587786,145.740463,9.679389
0.056641,-0.822510,1.083984,-22.160305,132.847336,0.809160
0.493408,-1.049316,-0.625244,-38.847328,87.458015,-10.244275
0.999512,-0.966797,-2.000000,-35.946564,46.106869,-20.534351
1.527100,-0.630615,-2.000000,-25.778625,10.938931,-32.091602
1.917969,-0.109619,-2.000000,-10.091603,-12.068703,-43.099236
1.984314,0.504395,-2.000000,5.587786,-20.557251,-51.267174
1.970703,1.104736,-2.000000,20.534351,-16.320610,-56.625954
1.672363,1.535156,-0.678711,26.862595,-1.282443,-57.908398
1.185547,1.737305,0.871338,23.992367,22.839695,-55.450382
0.612549,1.661377,1.984314,14.854961,52.221375,-48.618320
0.045898,1.374756,1.984314,2.297710,82.099236,-39.656490
-0.450684,0.965576,1.984314,-18.183207,123.473282,-26.419847
-0.775391,0.444824,1.984314,-31.557251,133.824432,-18.129770
-0.895020,-0.107422,1.984314,-43.625954,131.442749,-16.412214
-0.807617,-0.610352,1.984314,-56.145039,117.725189,-18.419847
-0.553223,-1.017334,1.183105,-63.580154,88.977097,-21.633587
-0.180420,-1.207520,-0.390869,-65.137405,52.534351,-23.854961
0.273438,-1.175537,-1.795898,-55.961834,11.183207,-23.847328
0.775635,-0.907715,-2.000000,-37.106869,-29.152672,-26.938931
1.251709,-0.448486,-2.000000,-8.473283,-60.007633,-35.129772
1.541992,0.105957,-2.000000,14.847328,-74.870232,-39.938931
1.638916,0.673584,-2.000000,39.160305,-61.877861,-30.374046
1.556885,1.185791,-1.713623,43.152672,-40.458015,-24.076336
1.258301,1.523193,-0.309570,42.045803,-14.916031,-20.358778
0.796631,1.657227,1.195557,37.450382,15.854961,-12.969465
0.278076,1.599609,1.984314,30.137405,46.404579,-1.610687
-0.216553,1.365479,1.984314,18.793894,71.557251,9.221375
-0.655273,0.995605,1.984314,2.045802,84.564888,15.091603
-0.960449,0.490967,1.984314,-15.290076,84.900764,17.038168
-1.095459,-0.084229,1.984314,-29.809160,71.427483,17.488550
-1.011719,-0.563965,1.984314,-37.389313,43.290077,16.687023
1.358398,-0.148437,-2.000000,-45.740459,-19.473282,7.015267
1.583740,0.386230,-2.000000,-47.557251,-69.732826,10.068703
1.620850,0.812256,-2.000000,-40.022900,-113.786263,15.755725
1.453125,1.124268,-1.427734,-20.946566,-148.503815,24.083969
1.087891,1.372070,0.248779,19.740458,-171.786255,31.396946
0.554443,1.534424,1.657959,67.854965,-172.938934,41.198475
-0.093262,1.507324,1.984314,105.122139,-145.465652,57.862595
-0.701904,1.439209,1.984314,138.748093,-117.839691,74.045799
-1.034668,1.168701,1.984314,141.396942,-120.267174,82.335876
-1.021484,0.496094,1.984314,78.610687,-116.221375,87.198471
-0.757568,-0.380127,1.984314,-14.870229,-118.679390,99.610687
-0.047607,-0.928955,1.984314,-70.687019,-102.114502,126.229004
1.000732,-1.145752,1.098145,-89.152672,-103.900764,128.564880
1.984314,-1.137451,0.031982,-102.786263,-102.572517,100.328247
1.984314,-1.093262,-0.722656,-108.740456,-42.832062,50.206108
1.984314,-1.040283,-1.486816,-99.992363,1.793893,-0.221374
1.984314,-0.722412,-2.000000,-77.763359,3.618321,-3.648855
1.984314,-0.119873,-2.000000,-36.618320,-14.053435,-3.305344
1.984314,0.639160,-2.000000,-2.412214,-60.221375,-24.679390
1.984314,1.292969,-2.000000,31.145039,-67.167938,-53.160305
1.984314,1.727783,-0.842773,59.496181,-37.832062,-55.160305
1.608887,1.979004,0.756104,74.946564,-34.732826,-35.633587
0.979736,1.980957,1.984314,70.526718,-34.259541,-11.770992
0.468262,1.717773,1.984314,45.687023,-24.175573,7.755725
0.098877,1.239990,1.984314,16.977098,-5.893130,17.839695
-0.093018,0.606445,1.984314,1.099237,16.923664,18.190840
-0.165527,-0.047119,1.984314,-3.305344,64.938934,18.022902
-0.068359,-0.576172,1.984314,0.328244,104.183205,20.885496
0.193115,-0.902344,1.749023,-0.267176,122.969467,19.679390
0.582520,-1.003662,0.182373,-12.389313,114.740456,15.152672
1.041016,-0.945312,-1.329102,-15.664123,94.885498,7.725191
1.524658,-0.706055,-2.000000,-12.854961,67.770996,-6.541985
1.942139,-0.332275,-2.000000,-13.290076,45.267174,-20.236641
1.984314,0.129150,-2.000000,-16.267176,19.229008,-32.854961
1.984314,0.617432,-2.000000,-14.160305,-3.236641,-46.954197
1.984314,1.085449,-2.000000,-5.916030,-18.458015,-57.396946
1.784668,1.464844,-0.751953,6.824428,-21.145039,-62.503819
1.338623,1.704590,0.780762,16.732824,-5.587786,-62.236641
0.806641,1.726074,1.984314,24.412214,22.236641,-58.603054
0.250244,1.553467,1.984314,21.396946,75.595421,-49.603054
-0.261963,1.188477,1.984314,7.389313,109.038170,-44.038166
-0.654297,0.643311,1.984314,-13.893129,134.450378,-37.419846
-0.861816,-0.002686,1.984314,-35.328243,146.656494,-30.427481
-0.832275,-0.577393,1.984314,-56.732826,146.244278,-26.511450
-0.588135,-1.032959,1.419922,-70.427483,129.557251,-25.374046
-0.193359,-1.272461,-0.160400,-77.152672,101.435112,-24.206106
0.284424,-1.261963,-1.600586,-74.671753,68.564888,-22.083969
0.788086,-1.070801,-2.000000,-59.366413,30.099237,-22.847328
1.269043,-0.626465,-2.000000,-29.755726,-9.274809,-42.435116
1.491699,-0.117676,-2.000000,2.618321,-47.091602,-40.625954
1.623047,0.508057,-2.000000,26.534351,-48.282444,-29.091602
1.542969,1.046875,-1.942627,39.038166,-49.167938,-29.198473
1.244385,1.427490,-0.428467,49.183205,-37.709923,-26.984734
0.807617,1.622314,1.150146,52.977100,-10.175572,-18.496183
0.300537,1.597656,1.984314,50.267174,23.603054,-6.755725
-0.201172,1.359131,1.984314,40.274811,57.648853,2.251908
-0.640869,0.979004,1.984314,26.694656,85.343513,9.801527
-0.957275,0.487549,1.984314,10.076336,100.572517,13.129771
-1.104492,-0.055908,1.984314,-16.847328,98.961830,16.152672
-1.029541,-0.554932,1.984314,-27.015266,75.503815,16.221375
-0.744873,-0.889893,1.277588,-37.000000,42.862595,16.480917
-0.330566,-1.053955,-0.130371,-42.648853,5.297710,18.824427
0.193359,-1.078369,-1.531494,-33.900764,-38.267174,18.992367
0.710937,-0.903076,-2.000000,-28.068703,-80.908394,10.320611
1.175293,-0.560791,-2.000000,-11.442748,-118.740456,7.488550
1.550781,-0.073975,-2.000000,7.412214,-149.442749,12.236641
1.742188,0.408936,-2.000000,27.587786,-162.709930,18.717558
1.741943,0.894775,-2.000000,57.763359,-153.236649,24.931297
1.529541,1.326904,-0.756348,90.748093,-113.625954,33.824429
1.063721,1.632080,0.891357,96.786263,-65.908394,43.351147
0.437744,1.733154,1.984314,92.244278,-25.900763,56.274811
-0.239746,1.546143,1.984314,72.893127,-4.083970,68.320610
-0.845703,1.110596,1.984314,36.396946,-5.702290,74.152672
-1.216797,0.437500,1.984314,-19.847328,-37.419846,106.610687
-1.056641,-0.182617,1.984314,-68.236641,-97.312981,123.984734
-0.353027,-0.766602,1.984314,-97.717560,-157.541992,118.931297
0.779541,-1.064453,1.984314,-119.793892,-175.603058,114.541985
1.926758,-1.104248,1.508789,-114.045799,-164.221375,98.557251
1.984314,0.501709,-1.355469,-85.267174,-140.648849,11.053435
1.984314,0.700928,-0.593506,-52.412212,-116.129768,-28.389313
1.984314,1.060059,0.303711,4.580153,-83.015266,-16.656488
1.984314,1.448730,0.920410,53.175571,-69.427483,-23.175573
1.984314,1.792725,1.886719,88.603050,-56.916031,-50.122139
1.296875,1.881104,1.984314,117.511452,-15.022901,-67.213737
0.532715,1.786133,1.984314,125.984734,30.793894,-58.564884
-0.145020,1.382324,1.984314,104.702293,58.671757,-32.648853
-0.531738,0.725098,1.984314,58.511452,74.007637,-6.183206
-0.526123,0.057129,1.984314,9.137404,71.396950,11.725191
-0.167725,-0.468262,1.984314,-36.977100,83.183205,15.564885
0.320557,-0.908203,1.029053,-51.740459,93.458015,10.160305
0.820312,-1.120361,-0.350830,-49.007633,100.473282,3.610687
1.274414,-1.079834,-1.640137,-39.977100,104.732826,-3.824427
1.657227,-0.794434,-2.000000,-29.679390,95.221375,-9.343512
1.959229,-0.402344,-2.000000,-20.061069,65.297707,-13.748092
1.984314,0.122070,-2.000000,-4.702290,30.664122,-19.358778
1.984314,0.648682,-2.000000,12.893129,3.603053,-30.946566
1.984314,1.110840,-1.792480,19.038168,-11.152672,-36.633587
1.951904,1.448730,-0.476807,24.442749,-14.969465,-44.969467
1.469727,1.648926,0.934570,39.595421,-11.000000,-51.618320
0.908203,1.666748,1.984314,42.778625,4.862596,-52.396946
0.336914,1.474365,1.984314,39.244274,28.572519,-48.000000
-0.158691,1.160400,1.984314,31.534351,57.908398,-40.770992
-0.517334,0.754395,1.984314,20.366413,87.656487,-33.763359
-0.737305,0.254150,1.984314,3.587786,114.809158,-28.480917
-0.762695,-0.246826,1.984314,-17.900763,134.259537,-25.198473
-0.608887,-0.691406,1.984314,-44.687023,140.679382,-22.541985
-0.310547,-1.011963,0.637939,-70.320610,131.625961,-21.152672
0.085693,-1.159912,-0.629639,-94.305344,96.877861,-21.893129
0.559570,-1.108643,-1.790283,-99.732826,64.274811,-24.648855
1.035156,-0.861328,-2.000000,-93.244278,31.389313,-29.885496
1.420410,-0.492432,-2.000000,-80.984734,-2.763359,-36.450382
1.674805,-0.052002,-2.000000,-64.931297,-30.656488,-40.000000
1.784668,0.418701,-2.000000,-45.015266,-53.862595,-39.641220
1.740479,0.891602,-2.000000,-22.740458,-65.427483,-37.045803
1.547852,1.315918,-0.938232,0.030534,-65.564888,-33.694656
1.257324,1.621826,0.454834,30.343512,-57.290077,-41.763359
0.757568,1.695313,1.790771,44.938931,-38.763359,-47.404579
0.209717,1.639404,1.984314,49.083969,20.603054,-21.259542
-0.276611,1.392578,1.984314,32.198475,53.625954,-12.725191
-0.697754,0.945312,1.984314,9.694656,70.366409,-9.557252
-0.978271,0.372314,1.984314,-12.374045,87.656487,-2.564885
-1.077393,-0.192871,1.984314,-29.091602,100.916031,6.954198
-0.991455,-0.622559,1.984314,-40.961834,103.061066,13.175572
-0.734863,-0.968262,1.342285,-51.061069,92.809158,12.305344
-0.355957,-1.153076,-0.117676,-58.748093,70.511452,8.282443
0.101807,-1.166992,-1.515381,-56.251907,37.290077,4.351145
0.594727,-0.999268,-2.000000,-49.160305,1.290076,0.022901
1.073486,-0.657471,-2.000000,-26.229008,-53.839695,-9.931297
1.465576,-0.161621,-2.000000,-3.534351,-82.961830,-16.198473
1.689941,0.394531,-2.000000,23.480917,-99.473282,-19.656488
1.706787,0.947266,-2.000000,42.106869,-104.167938,-18.900763
1.544678,1.408691,-1.103027,57.839695,-96.137405,-6.580153
1.242188,1.700439,0.419678,73.320610,-80.870232,4.595420
0.821533,1.769775,1.974121,91.122139,-54.824429,10.763359
0.331543,1.602539,1.984314,101.229004,-28.206106,16.549618
-0.208984,1.174072,1.984314,104.961830,1.480916,24.274809
-0.630615,0.657227,1.984314,112.709923,18.473282,36.305344
-0.811279,0.236328,1.984314,91.748093,34.129772,50.267174
-0.858154,-0.126953,1.984314,73.648857,42.022900,62.534351
-0.775146,-0.438232,1.602783,60.435116,29.648855,71.297707
-0.602051,-0.774902,-0.105225,30.877863,-8.908397,79.076332
-0.247314,-0.911133,-1.841553,-10.068703,-79.969467,78.450378
0.330811,-0.876709,-2.000000,-50.007633,-175.587784,95.679390
1.315430,-0.479004,-2.000000,-50.679390,-250.137405,97.908394
1.984314,-0.072754,-2.000000,-45.374046,-250.137405,83.274811
1.984314,0.477539,-1.917725,-33.641220,-250.137405,72.778625
1.984314,1.040527,-0.916748,-23.931297,-189.435120,49.816795
1.984314,1.320557,0.361328,-3.435115,-74.137405,26.923664
1.984314,1.293701,1.342285,19.427481,-31.671755,-8.664123
1.984314,1.377441,1.984314,45.900764,-3.267176,4.908397
1.873779,1.516357,1.984314,72.450378,39.236641,5.099236
1.415771,1.639648,1.984314,80.045799,81.625954,-13.862596
0.817383,1.618408,1.984314,71.557251,138.106873,-27.427481
0.107910,1.340088,1.984314,40.786259,172.740463,-21.847328
-0.423584,0.881348,1.984314,-6.824428,162.251907,-2.404580
-0.561768,0.331543,1.984314,-56.595421,113.259544,12.916031
1.663818,-0.242676,-2.000000,-90.480919,50.992367,3.755725
1.984314,-0.002197,-2.000000,-91.099236,24.946566,-12.541985
1.984314,0.318359,-2.000000,-72.839691,13.755725,-23.000000
1.984314,0.697998,-2.000000,-47.587788,0.351145,-31.282442
1.984314,1.060303,-1.782959,-21.564886,-19.114504,-35.877861
1.909180,1.411133,-0.595947,4.503817,-31.557251,-34.419846
1.576904,1.719727,0.689453,28.183207,-38.137405,-32.114502
1.190674,1.851318,1.970703,43.557251,-37.076336,-34.923664
0.702393,1.764648,1.984314,41.633587,-20.595419,-38.503819
0.181396,1.471191,1.984314,32.977100,2.931298,-42.480915
-0.267578,1.027832,1.984314,22.290077,46.480915,-39.961834
-0.581787,0.520996,1.984314,10.175572,72.580154,-36.816795
-0.729736,0.008301,1.984314,-2.603053,98.198471,-32.633587
-0.691895,-0.463135,1.984314,-20.557251,121.320610,-28.015266
-0.501221,-0.847656,1.562256,-39.541985,134.465652,-23.893129
-0.170410,-1.102051,0.095459,-59.114502,132.068695,-21.366413
0.277344,-1.136475,-1.308350,-74.625954,116.580154,-22.190840
0.791748,-0.982666,-2.000000,-86.236641,87.786263,-25.297710
1.279785,-0.654297,-2.000000,-91.000000,52.732826,-30.122137
1.654541,-0.202637,-2.000000,-85.106873,16.404581,-35.679390
1.854736,0.329102,-2.000000,-59.748093,-34.717556,-43.534351
1.866211,0.842285,-2.000000,-34.519085,-54.961834,-44.961834
1.706055,1.250488,-1.133789,-0.152672,-64.473282,-50.702290
1.357422,1.499756,0.259277,32.000000,-63.244274,-47.412212
0.928955,1.705566,1.580322,50.725189,-43.312977,-30.381680
0.496826,1.725098,1.984314,53.435116,-18.717558,-21.946566
0.024170,1.530029,1.984314,43.473282,5.366412,-22.641222
-0.432373,1.135498,1.984314,26.916031,33.793892,-16.290077
-0.781006,0.632080,1.984314,9.900764,62.656490,-8.992367
-0.964844,0.054443,1.984314,-4.877862,88.725189,1.984733
-0.941406,-0.449219,1.984314,-25.725191,115.664124,12.137404
-0.735107,-0.838135,1.977295,-30.801527,117.137405,13.969465
-0.402832,-1.090820,0.512695,-37.068703,108.969467,14.458015
0.007324,-1.165527,-0.907227,-41.656490,89.595421,13.114504
0.449219,-1.090576,-2.000000,-41.511452,58.358780,7.419847
0.883789,-0.850342,-2.000000,-34.587788,22.106871,2.229008
1.262939,-0.491211,-2.000000,-21.954199,-13.885496,-3.068702
1.547852,-0.020508,-2.000000,-3.145038,-45.809162,-6.740458
1.668945,0.476318,-2.000000,15.717557,-70.740456,-10.564885
1.588135,0.906982,-2.000000,28.770992,-84.870232,-11.175572
1.322021,1.297363,-1.126465,44.053436,-84.076332,-9.160305
0.861572,1.497559,0.291748,38.648853,-78.763359,13.625955
0.412354,1.519775,1.646729,43.480915,-64.236641,31.038168
-0.087158,1.327881,1.984314,47.129772,-45.351147,40.374046
-0.578125,1.067383,1.984314,50.946564,-27.832062,49.534351
-0.942139,0.777832,1.984314,51.549618,-17.000000,57.312977
-1.110596,0.405029,1.984314,39.679390,-17.961832,64.977097
-1.093262,0.047607,1.984314,18.595419,-9.648855,69.091606
-0.881592,-0.288818,1.984314,-1.656489,-15.213740,69.038170
-0.433838,-0.603760,0.911133,-41.938931,-62.053436,69.671753
0.229736,-0.886230,-0.488037,-86.916031,-107.374046,70.778625
1.214844,-0.957520,-1.347168,-105.480919,-141.221375,95.862595
1.984314,-0.798096,-1.947754,-92.603050,-169.786255,88.473282
1.984314,-0.398682,-1.963623,-66.251907,-153.809158,56.854961
1.984314,0.043945,-1.843506,-33.969467,-87.854965,12.778625
1.984314,0.459473,-1.694824,8.526717,-60.572517,-18.625954
1.984314,0.774414,-1.450684,33.778625,-56.419846,-29.030535
1.984314,0.960449,-1.088379,51.412212,-65.916031,-35.755726
1.984314,1.245361,-0.267822,82.778625,-50.251907,-44.832062
1.893066,1.642578,0.896729,121.778625,16.412214,-40.786259
1.342041,1.850586,1.984314,130.877869,75.595421,-25.145039
0.715820,1.757324,1.984314,107.893127,115.679390,-9.435115
0.086426,1.424316,1.984314,64.816795,127.229004,-2.908397
-0.366455,0.960449,1.984314,18.503817,121.519081,1.076336
-0.551270,0.446533,1.984314,-27.954199,113.412216,0.793893
-0.462646,-0.004395,1.984314,-65.526718,108.549622,-7.038168
-0.274170,-0.478027,1.984314,-96.053436,103.183205,-16.190840
-0.003418,-0.868408,0.987061,-109.221375,82.068703,-18.305344
0.372559,-1.008789,-0.392578,-100.511452,44.244274,-17.244274
0.867920,-0.961670,-1.567627,-71.343513,-7.534351,-19.152672
1.404541,-0.734863,-2.000000,-37.190838,-29.595419,-17.404581
1.873291,-0.335938,-2.000000,-0.603053,-34.587788,-22.343512
1.984314,0.135254,-2.000000,26.893129,-22.221375,-28.473282
1.984314,0.615723,-2.000000,43.854961,-9.564885,-31.770992
1.984314,1.062256,-1.968506,52.694656,8.824428,-33.938931
1.904785,1.400146,-0.842041,54.022900,33.549618,-34.442749
1.531494,1.655029,0.537598,49.007633,65.931297,-33.198475
1.059814,1.754883,1.867188,38.442749,101.725189,-30.106871
0.545166,1.632813,1.984314,21.419847,136.473282,-25.374046
-0.570801,-0.707764,1.983154,-7.160306,178.931305,-19.236641
-0.250488,-0.951416,0.502441,-27.740458,189.992371,-18.106871
0.153809,-1.000000,-0.927246,-47.740459,187.740463,-18.473282
0.588379,-0.900879,-2.000000,-66.022903,172.664124,-21.824427
1.011230,-0.664307,-2.000000,-79.938934,147.480911,-26.366413
1.375488,-0.333740,-2.000000,-83.297707,114.770996,-29.610687
1.635010,0.098633,-2.000000,-76.732826,78.870232,-34.435116
1.756104,0.569092,-2.000000,-59.328243,46.122139,-39.442749
1.698242,1.023926,-1.621826,-35.328243,22.015266,-42.549618
1.459961,1.433594,-0.351563,-9.160305,8.335877,-43.183205
1.082764,1.717773,0.957520,21.068703,5.328244,-42.412212
0.598389,1.774170,1.984314,33.709923,16.610687,-36.328243
0.113770,1.548340,1.984314,53.221375,33.801525,-28.793894
-0.340820,1.267822,1.984314,73.633591,54.145039,-33.534351
-0.738281,0.904785,1.984314,81.198471,85.305344,-6.572519
-0.938965,0.618164,1.984314,71.526718,127.053436,9.557252
-1.088379,0.214600,1.984314,40.786259,149.022903,6.488550
-1.119141,-0.211670,1.984314,3.549618,156.816788,4.671756
-0.973145,-0.610840,1.677734,-32.404579,157.038162,11.175572
-0.646973,-0.893066,0.348389,-68.312981,143.656494,14.854961
-0.232666,-0.992676,-0.907227,-81.610687,120.839691,12.419847
0.199707,-0.975830,-1.987549,-86.679390,94.908394,9.541985
0.627441,-0.817383,-2.000000,-87.328247,65.442749,6.687023
0.965820,-0.580078,-2.000000,-85.290077,33.503819,5.389313
1.209961,-0.265869,-2.000000,-78.694656,-1.893130,3.793893
1.305908,0.088867,-2.000000,-71.129768,-37.679390,3.229008
1.248535,0.443115,-2.000000,-53.297710,-75.725189,6.053435
1.056152,0.757568,-1.943359,-29.267176,-112.557251,14.557252
0.739502,0.983887,-0.728516,-3.778626,-143.961838,25.900763
0.302734,1.084717,0.585449,25.877863,-149.274811,41.396946
-0.174316,1.049316,1.965820,46.343510,-154.129776,59.083969
-0.622070,0.999512,1.984314,68.435112,-157.534348,74.900764
-1.036621,0.865967,1.984314,55.770992,-165.458008,80.473282
-1.311279,0.529785,1.984314,13.687023,-182.442749,99.893127
-1.188965,-0.011230,1.984314,-22.671755,-217.267181,116.625954
-0.594238,-0.576904,1.984314,-59.633587,-213.595413,119.839691
0.399414,-0.826660,1.984314,-62.412212,-167.755722,129.519089
1.655273,-1.054932,1.069336,-41.557251,-166.129776,140.931305
1.984314,-1.121094,0.260498,-15.618320,-86.526718,107.160309
1.984314,-0.864990,-0.177979,10.923664,-42.709923,79.458015
1.984314,-0.798340,-0.769531,8.167939,-23.992367,55.625954
1.984314,-0.409424,-1.412842,27.343512,9.664123,-19.938931
1.984314,0.061523,-2.000000,40.603054,-6.335878,-27.435114
1.984314,0.682617,-2.000000,40.374046,-2.519084,-17.763359
1.971191,0.932617,-2.000000,21.786259,-24.824427,-41.916031
1.855469,1.228271,-1.350830,6.946565,-48.442749,-48.038166
1.680664,1.598633,-0.260986,0.595420,-28.274809,-41.320610
1.417969,1.780273,0.859619,-15.664123,-31.824427,-29.465649
1.064941,1.791992,1.984314,-27.000000,-11.335877,-32.381680
0.575684,1.617676,1.984314,-27.679390,43.809162,-29.961832
0.130859,1.378418,1.984314,-24.793894,65.450378,-20.038168
-0.188232,1.079346,1.984314,-25.335878,89.824425,-11.343512
-0.406006,0.715576,1.984314,-30.465649,114.030533,-9.748092
-0.572266,0.280029,1.984314,-39.297710,135.977097,-10.786260
-0.662109,-0.180176,1.984314,-49.358780,150.465652,-10.564885
-0.626709,-0.587646,1.984314,-56.320610,157.625961,-9.183207
-0.456299,-0.924072,1.984314,-59.954197,150.908401,-11.076336
-0.193848,-1.141113,0.875977,-58.877861,135.816788,-16.687023
0.133789,-1.239990,-0.361084,-54.259541,117.870232,-22.961832
0.482910,-1.181152,-1.452637,-42.480915,74.465652,-32.412212
0.851562,-0.964600,-2.000000,-29.748091,51.389313,-39.358780
1.202393,-0.641357,-2.000000,-14.374045,27.236641,-47.526718
1.474365,-0.245361,-2.000000,-1.068702,11.641221,-55.396946
1.622803,0.182617,-2.000000,11.625955,6.083970,-58.908398
1.640381,0.593994,-2.000000,26.473282,5.610687,-57.717556
1.539063,0.983643,-1.295898,38.786259,13.198473,-54.770992
1.295166,1.272949,-0.089111,48.725189,28.282442,-51.160305
0.936035,1.485596,1.202637,54.404579,53.427483,-35.488548
0.545166,1.582031,1.984314,48.442749,104.961830,-14.587787
0.110840,1.506836,1.984314,34.244274,128.954193,-4.961832
-0.339355,1.290771,1.984314,13.847328,144.312973,0.770992
-0.737305,0.981201,1.984314,-7.519084,150.770996,4.083970
-1.016113,0.618164,1.984314,-28.381680,149.114502,7.229008
-1.190430,0.200928,1.984314,-48.755726,141.717560,10.488549
-1.256836,-0.199707,1.984314,-72.389313,125.053436,14.419847
-1.165771,-0.564697,1.984314,-88.496185,99.870232,13.931297
-0.950195,-0.877686,1.607422,-95.893127,67.022903,9.923664
-0.643555,-1.091553,0.316162,-93.984734,30.931297,5.770992
1.528076,0.427734,-2.000000,-78.832062,-24.328245,-5.015267
1.522217,0.793945,-2.000000,-58.854961,-53.931297,-7.641222
1.386475,1.144531,-0.964600,-32.687023,-74.801529,-12.419847
1.062500,1.374512,0.409180,-5.977099,-91.267174,-18.488550
0.656494,1.504883,1.761963,19.183207,-95.190842,-18.580153
0.200684,1.474854,1.984314,33.488548,-89.793892,-18.694656
-0.267822,1.278564,1.984314,42.122139,-78.106873,-13.274809
-0.677734,0.970703,1.984314,45.183205,-59.061069,-5.519084
-0.988037,0.590576,1.984314,49.175571,-36.259541,-0.183206
-1.183350,0.162354,1.984314,50.618320,-11.007633,5.870229
-1.219238,-0.289795,1.984314,42.587788,32.366413,13.938931
-1.106201,-0.668457,1.984314,34.358780,50.862595,20.091602
-0.855469,-0.934326,1.515869,21.961832,62.076336,23.282442
-0.510254,-1.107178,0.167480,7.984733,58.290077,23.053434
-0.066650,-1.143799,-1.123047,-1.656489,42.175571,23.183207
0.438965,-1.020508,-2.000000,-6.297710,19.412214,19.541985
0.919434,-0.738525,-2.000000,-7.648855,-11.618320,15.282443
1.269287,-0.312256,-2.000000,-18.770992,-53.022900,6.786260
1.320801,0.035645,-2.000000,-46.519085,-106.106873,19.717558
1.284424,0.372314,-2.000000,-47.213741,-151.709930,42.778625
1.045898,0.844482,-2.000000,-10.374045,-202.526718,53.473282
0.557617,1.243164,-1.662598,22.870230,-244.770996,65.022903
-0.108887,1.373779,0.289551,39.877861,-250.137405,85.572517
-0.542236,1.372070,1.984314,54.251907,-250.137405,104.114502
-0.775879,1.252197,1.984314,82.145035,-250.137405,114.740456
0.014648,0.812256,1.984314,87.076332,-250.137405,136.725189
1.543457,0.427490,1.984314,38.580154,-250.137405,117.015266
1.984314,-0.048096,1.984314,25.274809,-139.687027,92.885498
1.984314,-0.810547,1.984314,-22.030535,38.816795,90.702293
1.961914,-1.415283,1.984314,-37.694656,111.961830,8.076336
0.972656,-2.000000,1.984314,-18.503817,143.977097,-29.251909
0.631104,-1.643799,1.605469,28.473282,150.305344,22.351145
0.905518,-1.129395,-0.295410,35.381680,133.938934,-17.274809
1.123047,-0.691406,-1.970459,6.236641,52.916031,-76.595421
1.335449,-0.377441,-2.000000,-48.557251,18.534351,-81.358780
1.428955,-0.085693,-2.000000,-92.931297,-3.862595,-56.488548
1.579590,0.191406,-2.000000,-104.465652,-55.748093,-35.335876
1.769287,0.505371,-2.000000,-88.900764,-98.419846,-32.862595
1.888916,0.871094,-2.000000,-49.595421,-128.496185,-35.854961
1.919434,1.222412,-1.669434,-2.908397,-131.419846,-32.274811
1.766846,1.494629,-0.552979,28.099237,-101.312981,-28.000000
1.494141,1.743408,0.629639,45.541985,-70.977097,-32.022900
1.098633,1.807373,1.800049,51.198475,-43.870228,-41.183205
0.652588,1.674805,1.984314,42.503819,-17.557251,-43.526718
0.252441,1.401367,1.984314,30.603054,11.083969,-39.160305
-0.098877,1.057373,1.984314,21.923664,39.511452,-33.847328
-0.388184,0.638916,1.984314,19.305344,68.061066,-29.503817
-0.605225,0.212891,1.984314,19.480917,92.366409,-25.801527
-0.713623,-0.174561,1.984314,17.053434,111.236641,-21.664122
-0.707275,-0.528320,1.984314,0.007634,122.000000,-16.748091
-0.604004,-0.839844,1.984314,-7.145038,118.557251,-14.770992
-0.400635,-1.074951,1.760742,-9.435115,104.580154,-17.633587
-0.124756,-1.177246,0.612305,-11.480916,86.106873,-24.282442
0.171875,-1.154297,-0.442383,-16.259542,64.656487,-31.450382
0.473389,-1.076904,-1.382813,-25.305344,37.801525,-36.572517
0.775391,-0.949219,-2.000000,-35.427483,10.366412,-42.770992
1.068848,-0.780029,-2.000000,-42.977100,-18.984734,-48.748093
1.343994,-0.549316,-2.000000,-42.961834,-43.893131,-52.786259
1.583984,-0.230957,-2.000000,-33.679390,-65.122139,-55.465649
1.747314,0.122559,-2.000000,-8.114504,-85.625954,-56.152672
1.851807,0.505615,-2.000000,14.755725,-85.343513,-56.427483
1.839600,0.879883,-2.000000,35.625954,-78.564888,-57.015266
1.740723,1.229248,-1.294189,49.122139,-62.793892,-50.351147
1.567383,1.508301,-0.368408,53.206108,-45.213741,-45.442749
1.315918,1.672119,0.579346,50.389313,-27.167938,-44.854961
0.995605,1.694580,1.518799,46.183205,-6.717557,-42.358780
0.639404,1.600586,1.984314,44.679390,17.458015,-34.381680
0.287354,1.478760,1.984314,42.503819,39.900764,-22.870230
-0.020996,1.324463,1.984314,38.122139,58.778625,-12.396947
-0.310303,1.151611,1.984314,20.328245,90.030533,-4.519084
-0.581787,0.913086,1.984314,9.190840,101.885498,0.366412
-0.806641,0.601807,1.984314,-7.893130,104.282440,3.206107
-0.969727,0.189941,1.984314,-22.564886,96.045799,3.931298
-0.998291,-0.211670,1.984314,-34.870228,81.038170,3.816794
-0.892334,-0.593262,1.984314,-40.190838,62.213741,3.618321
-0.676270,-0.893311,1.659912,-41.274811,40.770992,0.114504
-0.407715,-1.076660,0.522217,-38.198475,16.045801,-5.755725
-0.087158,-1.137451,-0.632324,-34.061069,-13.435115,-11.007633
0.267578,-1.083740,-1.680664,-31.290077,-44.801525,-12.885496
1.577637,1.140869,-1.513916,-16.244274,-86.793892,-13.076336
1.386963,1.399902,-0.481445,-5.389313,-106.068703,-13.488549
1.082520,1.572510,0.585937,10.732824,-119.862595,-13.740458
0.691895,1.611328,1.593506,26.656488,-125.770996,-8.480916
0.253662,1.488770,1.984314,36.305344,-127.099236,0.854962
-0.220703,1.220703,1.984314,45.641220,-121.580154,13.725191
-0.648926,0.953369,1.984314,63.862595,-111.931297,29.145039
-0.978760,0.733398,1.984314,85.351143,-101.946564,40.290077
-1.164795,0.512451,1.984314,94.801529,-94.824425,47.198475
-1.232666,0.196777,1.984314,60.885498,-72.137405,55.702290
-1.204346,-0.182617,1.984314,20.839695,-54.854961,65.816795
-0.925781,-0.537109,1.770020,-6.259542,-75.198471,77.167938
-0.170898,-0.788086,0.719971,-33.671757,-118.717560,77.648857
0.796143,-1.113281,-0.155762,-83.175575,-118.412216,97.045799
1.733154,-1.130859,-1.098877,-108.954201,-94.641220,115.419846
1.984314,-1.120117,-1.621826,-115.488548,-77.412216,98.839691
1.984314,-0.975830,-1.861816,-103.480919,-56.732826,67.007637
1.984314,-0.698242,-2.000000,-74.725189,-36.671757,34.442749
1.984314,-0.223633,-2.000000,-44.129772,-36.564884,16.091602
1.984314,0.288574,-2.000000,-19.167938,-58.068703,1.083969
1.984314,0.660156,-2.000000,-9.541985,-62.030533,-11.083969
1.984314,1.027100,-2.000000,14.290076,-66.137405,-25.603054
1.984314,1.452148,-1.607666,39.679390,-67.030533,-37.083969
1.984314,1.845703,-0.725830,56.290077,-62.000000,-35.007633
1.875488,1.984314,0.348633,54.282444,-54.900764,-26.870230
1.461914,1.984314,1.525879,35.038166,-54.961834,-19.007633
1.098389,1.883545,1.984314,14.801527,-55.305344,-12.916031
0.813477,1.600830,1.984314,7.877862,-48.000000,-17.732824
0.541748,1.234863,1.984314,17.045801,-24.145039,-17.015266
0.291016,0.871582,1.984314,31.786259,41.045803,-5.442748
0.053711,0.543701,1.984314,47.801525,86.259544,2.045802
-0.136475,0.237793,1.984314,54.862595,119.725189,6.259542
-0.228760,-0.046387,1.984314,56.679390,137.786255,4.358778
-0.236328,-0.330078,1.984314,44.221375,156.610687,3.671756
-0.165039,-0.637939,1.984314,25.961832,170.603058,1.175573
-0.055908,-0.923828,1.423828,5.786260,172.480911,-4.854962
0.104492,-1.123535,0.290039,-12.190840,163.366409,-12.854961
0.334473,-1.209473,-0.834229,-26.114504,143.015274,-20.038168
0.623535,-1.184814,-1.830811,-33.458015,116.122139,-26.045801
0.953125,-1.022461,-2.000000,-31.282442,66.618324,-34.213741
1.268311,-0.737793,-2.000000,-24.656488,37.557251,-39.305344
1.540771,-0.371338,-2.000000,-18.755726,13.969465,-45.480915
1.710938,0.027344,-2.000000,-12.687023,-5.343512,-51.908398
1.773926,0.409668,-2.000000,-4.450382,-21.335878,-56.236641
1.754395,0.793213,-2.000000,5.625954,-31.000000,-57.648853
1.636719,1.168213,-1.516846,19.083969,-33.511452,-55.946564
1.444336,1.475830,-0.453857,26.740458,-30.221375,-52.809162
1.188232,1.700195,0.655518,31.900763,-19.061069,-49.900764
0.871582,1.784180,1.679932,31.671755,-1.832061,-46.374046
0.504395,1.714111,1.984314,27.908398,41.969467,-37.763359
0.098877,1.527100,1.984314,20.450382,67.343513,-33.183205
-0.298340,1.268555,1.984314,13.572519,89.694656,-27.916031
-0.646240,0.889404,1.984314,15.740458,107.877861,-23.381680
-0.891846,0.529541,1.984314,10.824428,117.358780,-32.625954
-1.094482,0.147949,1.984314,-0.900763,129.358780,-9.267176
-1.106445,-0.173584,1.984314,-23.534351,-0.007634,-0.007634
-1.029541,-0.531006,1.984314,-48.458015,113.984734,-1.664122
-0.865723,-0.917969,1.426514,-66.793892,90.885498,-4.145038
-0.611328,-1.156250,0.228027,-78.755722,49.320610,-1.717557
-0.247803,-1.212646,-0.931885,-71.541985,15.396947,3.389313
0.175781,-1.140625,-1.990967,-56.496181,-22.763359,-0.977099
0.549805,-0.942139,-2.000000,-46.618320,-56.312977,-8.816793
0.889160,-0.747314,-2.000000,-27.488550,-84.312981,-6.549618
1.138672,-0.512695,-2.000000,-12.190840,-108.908394,-1.351145
1.287842,-0.156250,-2.000000,1.564885,-131.244278,7.061069
1.345947,0.269531,-2.000000,14.091603,-151.534348,24.923664
1.315918,0.678467,-2.000000,38.045803,-165.664124,41.366413
1.162109,1.045166,-1.884766,63.366413,-169.183212,53.435116
0.908691,1.378418,-0.556152,90.022903,-146.641220,62.007633
0.604736,1.738037,1.179199,108.503815,-128.587784,59.717556
0.324219,1.984314,1.984314,117.282440,-115.648857,56.732826
0.200684,1.955322,1.984314,69.732826,-119.038170,62.656490
0.145508,1.477051,1.984314,-32.847328,-94.480919,70.664124
-0.065918,0.778320,1.984314,-96.824425,-71.442749,112.763359
0.068604,0.276611,1.984314,-105.793892,-82.358780,130.732819
0.632324,-0.001221,1.984314,-100.908394,-95.267174,115.793892
1.166992,-0.270752,1.984314,-108.229004,-59.496181,73.106873
1.280029,-0.557129,1.984314,-111.236641,-8.778625,28.702290
1.984314,-0.802246,-2.000000,-103.496185,0.175573,7.801527
1.984314,-0.605713,-2.000000,-75.893127,15.580153,2.564885
1.984314,-0.133301,-2.000000,-37.206108,2.664122,-7.862596
1.984314,0.515381,-2.000000,-0.183206,-9.778625,-27.267176
1.984314,1.074463,-2.000000,28.511450,3.442748,-49.534351
1.984314,1.492676,-2.000000,46.732826,14.610687,-50.305344
1.945313,1.741943,-0.984375,45.549618,-4.267176,-36.045803
1.553955,1.822998,0.378174,32.664124,-49.557251,-25.496183
1.287842,1.783691,1.721924,16.916031,-91.129768,-25.770992
1.089600,1.629150,1.984314,8.847328,-99.977097,-25.854961
0.837891,1.384277,1.984314,22.114504,-50.809162,-23.022902
0.477783,1.070801,1.984314,37.458015,-0.824427,-19.068703
0.147949,0.778809,1.984314,53.580154,22.435114,-10.458015
-0.048828,0.547119,1.984314,64.038170,47.618320,-5.213740
-0.199463,0.295654,1.984314,65.221375,85.763359,-2.671756
-0.287598,0.055420,1.984314,67.503815,108.366409,-7.572519
-0.253906,-0.253906,1.984314,50.839695,131.312973,-10.320611
-0.139404,-0.578857,1.984314,16.541985,151.725189,-7.809160
-0.029053,-0.864502,1.214355,-13.977099,159.625961,-12.183207
0.112061,-1.077637,0.131836,-38.854961,156.465652,-18.496183
0.322266,-1.151611,-0.956787,-61.045803,134.610687,-21.938931
0.608154,-1.099365,-1.912842,-66.404579,113.893127,-21.664122
0.931396,-0.922852,-2.000000,-65.847328,89.274811,-22.801527
1.252686,-0.641602,-2.000000,-62.519085,60.427483,-25.770992
1.537598,-0.297607,-2.000000,-59.931297,30.335878,-30.137405
1.748291,0.080811,-2.000000,-56.282444,3.549618,-35.763359
1.856689,0.446045,-2.000000,-49.625954,-19.580153,-42.328243
1.854492,0.760498,-2.000000,-41.541985,-36.381680,-48.427483
1.746582,1.026611,-1.752441,-30.412214,-48.290077,-51.801525
1.560547,1.256836,-0.816406,-6.343512,-54.877861,-52.427483
1.325195,1.452148,0.210205,7.893130,-49.870228,-48.557251
1.015869,1.554688,1.238770,21.091602,-36.534351,-43.740459
0.667969,1.542480,1.984314,33.045803,-15.290076,-37.030533
0.324463,1.416992,1.984314,51.343510,9.152672,-30.893129
-0.049316,1.252197,1.984314,62.251907,35.114502,-26.984734
-0.386475,1.034424,1.984314,67.404579,71.038170,-7.274809
-0.663818,0.753418,1.984314,62.549618,101.496185,-2.824427
-0.880859,0.380371,1.984314,50.091602,119.809158,-4.061069
-0.969238,0.029785,1.984314,33.320610,135.648849,-2.374046
-0.948975,-0.316650,1.984314,2.847328,143.992371,0.748092
-0.837646,-0.644043,1.984314,-14.076336,134.541992,-1.900763
-0.637451,-0.907959,0.827637,-27.992367,115.221375,-4.160306
-0.334473,-1.022949,-0.472900,-43.687023,86.717560,-3.832061
0.049561,-1.035400,-1.659424,-58.351147,51.717556,-1.854962
0.474609,-0.958740,-2.000000,-66.129768,11.152672,-1.832061
0.900146,-0.769287,-2.000000,-64.206108,-32.190838,-5.931298
1.229980,-0.513428,-2.000000,-56.839695,-70.938934,-8.114504
1.360840,-0.253418,-2.000000,-47.694656,-101.511452,0.366412
1.297607,0.028564,-2.000000,-29.450382,-123.145035,17.312977
1.116455,0.436279,-2.000000,13.870229,-145.374039,39.351147
0.958496,0.917236,-2.000000,60.503819,-189.755722,60.328243
0.856934,1.361816,-0.449219,108.389313,-218.122131,64.244278
0.738037,1.817383,0.989746,143.931305,-224.106873,60.603054
0.543457,1.984314,1.984314,157.045807,-176.396942,64.938934
0.349609,1.984314,1.984314,137.106873,-132.175568,81.816795
0.152344,1.554443,1.984314,72.473282,-76.244278,104.793892
-0.067383,0.936768,1.984314,26.679390,-43.725189,105.732826
-0.159424,0.230469,1.984314,-13.519084,-50.442749,128.374039
0.304688,-0.190674,1.984314,-38.022900,-46.458015,133.007629
0.961182,-0.583740,1.984314,-74.610687,-44.366413,108.732826
1.440430,-0.939453,1.984314,-91.259544,-33.167938,56.343510
1.553467,-1.334229,1.473633,-105.641220,-25.610687,19.091602
1.504883,-1.547119,0.376953,-96.992363,-12.244275,7.374046
1.619629,-1.349854,-0.561035,-49.175571,-13.603053,-2.274809
1.984314,-0.673340,-1.687744,0.503817,-33.389313,-21.816793
1.984314,-0.099121,-2.000000,27.664122,-32.213741,-50.534351
1.984314,0.246826,-2.000000,39.801525,-18.977098,-50.419846
1.857178,0.564209,-2.000000,41.740459,-31.717558,-26.862595
1.870117,0.913330,-2.000000,36.473282,-74.328247,-12.610687
1.984314,1.231445,-2.000000,37.549618,-90.167938,-9.603053
1.984314,1.486084,-0.944336,28.854961,-74.167938,-9.503817
1.936035,1.597656,0.323242,26.160305,-40.305344,-6.740458
1.604248,1.587158,1.517334,28.068703,-1.160305,-4.854962
1.214111,1.473145,1.984314,34.641220,32.473282,-2.648855
0.873535,1.334961,1.984314,38.763359,67.801529,5.519084
0.586182,1.209961,1.984314,37.786259,104.458015,11.091603
0.310547,1.030518,1.984314,30.770992,132.977097,11.061069
0.065918,0.770508,1.984314,16.679390,154.770996,6.824428
0.938232,-0.944824,-1.033203,-10.511451,165.587784,-0.435115
1.212402,-0.824219,-2.000000,-23.358778,161.847336,-12.175572
1.488525,-0.607666,-2.000000,-39.603054,146.679382,-25.213741
1.719971,-0.313965,-2.000000,-55.259541,124.664124,-37.557251
1.890137,0.019775,-2.000000,-67.282440,97.625954,-47.152672
1.939697,0.365479,-2.000000,-69.305344,67.557251,-54.870228
1.892090,0.681152,-2.000000,-63.557251,36.877861,-59.358780
1.775146,1.017090,-2.000000,-47.679390,7.938931,-61.595421
1.584961,1.316406,-0.974609,-28.702290,-16.343512,-63.748093
1.289795,1.553467,0.260986,-10.427481,-29.099237,-64.541985
0.912842,1.666748,1.447998,17.320610,-26.923664,-63.122139
0.496094,1.633057,1.984314,30.618320,-16.290077,-58.984734
0.071777,1.466553,1.984314,39.442749,-2.000000,-54.702290
-0.330566,1.199707,1.984314,43.152672,18.786259,-48.931297
-0.680908,0.856689,1.984314,38.839695,44.206108,-39.274811
-0.956543,0.418213,1.984314,27.763359,67.908394,-26.900763
-1.116455,-0.057129,1.984314,13.679389,85.740456,-15.396947
-1.115967,-0.497070,1.984314,4.419847,98.328247,-8.305344
-0.947266,-0.865723,1.984314,6.931298,102.068703,-8.534351
-0.659668,-1.075439,1.029541,2.709924,104.045799,-2.977099
-0.307861,-1.095703,-0.208008,-15.832061,100.038170,3.175573
0.012207,-1.070801,-1.343018,-27.106871,84.335876,2.351145
0.330322,-1.006836,-2.000000,-31.740458,53.381680,0.961832
0.683350,-0.822998,-2.000000,-30.709923,15.954199,3.763359
1.041016,-0.523193,-2.000000,-30.229008,-19.068703,5.763359
1.312500,-0.145752,-2.000000,-35.709923,-54.541985,4.450382
1.484863,0.173340,-2.000000,-34.358780,-87.358780,9.816793
1.572510,0.496094,-2.000000,-29.809160,-119.175575,13.603053
1.620117,0.801514,-2.000000,-20.068703,-149.198471,15.320611
1.610596,1.036377,-1.444580,-1.893130,-172.351151,18.419847
1.427734,1.165527,-0.348633,26.725191,-161.786255,25.862595
1.099609,1.317871,1.062012,65.328247,-137.496185,37.068703
0.811035,1.533691,1.984314,119.030533,-120.175575,43.610687
0.514893,1.709717,1.984314,143.786255,-102.977097,45.938931
0.004150,1.616699,1.984314,124.045799,-57.526718,44.854961
-0.557129,1.284668,1.984314,77.961830,-36.091602,50.190838
-0.828613,0.893799,1.984314,12.458015,-65.022903,56.969467
-0.625000,0.400391,1.984314,-43.809162,-101.458015,71.229004
-0.052979,-0.100830,1.984314,-69.793892,-96.053436,72.007637
0.485840,-0.485840,1.984314,-83.000000,-56.099236,67.564888
0.864014,-0.691162,1.984314,-97.465652,-8.946565,50.587788
1.061768,-0.834473,1.984314,-99.000000,27.053434,34.877861
1.169189,-0.941895,1.048096,-96.519081,31.740458,26.587786
1.370850,-0.965088,0.092773,-89.076332,13.916031,18.908398
1.687256,-0.827393,-0.708984,-69.992363,6.824428,7.603054
1.952637,-0.553467,-1.659668,-40.977100,9.213740,-8.885496
1.984314,-0.290039,-2.000000,-12.557252,28.083969,-25.778625
1.877930,-0.043945,-2.000000,7.129771,30.229008,-31.038168
1.820068,0.224609,-2.000000,10.221375,-9.763359,-22.496183
1.945801,0.516602,-2.000000,1.427481,-65.480919,-15.854961
1.984314,0.751465,-2.000000,7.732824,-103.259544,-15.534351
1.984314,0.959717,-2.000000,17.458015,-100.015266,-16.160305
1.984314,1.158936,-1.212158,39.236641,-89.099236,-16.167938
1.984314,1.344482,-0.117920,60.167938,-64.564888,-14.916031
1.735596,1.504639,1.007813,73.206108,-31.114504,-10.442748
1.373291,1.581055,1.984314,76.458015,3.564885,-6.526718
0.999023,1.535156,1.984314,68.931297,36.702290,-4.709924
0.599365,1.368896,1.984314,57.274811,71.610687,-2.923664
0.221191,1.103516,1.984314,41.412212,101.839691,-1.152672
-0.091797,0.763428,1.984314,11.427481,135.458008,2.122137
-0.313965,0.411621,1.984314,-5.900764,144.961838,0.022901
-0.444824,0.045654,1.984314,-22.824427,148.580154,-3.259542
-0.475098,-0.304688,1.984314,-39.564884,144.717560,-7.022901
-0.414551,-0.619629,1.984314,-54.534351,131.564880,-12.076336
-0.258789,-0.849854,1.224854,-66.129768,112.106873,-16.656488
-0.031006,-0.985352,0.067139,-74.267174,87.557251,-21.671755
0.256104,-1.013428,-1.012451,-77.335876,59.305344,-27.549618
0.571045,-0.948975,-1.992432,-76.641220,27.114504,-33.496181
0.914307,-0.794434,-2.000000,-71.305344,-3.786260,-38.167938
1.241699,-0.539795,-2.000000,-51.610687,-42.648853,-46.015266
1.519043,-0.216797,-2.000000,-37.572517,-58.702290,-49.396946
1.719482,0.134033,-2.000000,-21.923664,-64.465652,-49.679390
1.834717,0.494629,-2.000000,-2.679389,-59.564884,-48.320610
1.808350,0.853516,-2.000000,15.152672,-48.969467,-47.778625
1.658203,1.170654,-1.557617,27.198473,-30.679390,-36.427483
1.445313,1.433105,-0.534912,33.503819,-8.022901,-24.793894
1.160400,1.607178,0.519531,35.465649,11.091603,-18.763359
0.810303,1.681641,1.565430,31.763359,29.656488,-14.938931
0.444580,1.628906,1.984314,25.137405,50.671757,-7.732824
-0.862793,-0.630371,1.984314,7.122138,83.969467,3.045802
-0.662354,-0.887939,1.506592,-5.312977,95.419846,6.351145
-0.405029,-1.067139,0.422852,-18.488550,99.748093,7.175572
-0.082275,-1.145020,-0.657715,-29.641222,95.900764,8.877863
0.273926,-1.134766,-1.642334,-38.274811,86.519081,11.664123
0.644287,-1.008301,-2.000000,-41.648853,72.633591,11.847328
0.983398,-0.781982,-2.000000,-42.030533,55.595421,10.221375
1.286621,-0.482666,-2.000000,-41.839695,33.763359,6.793893
1.534180,-0.136230,-2.000000,-42.183205,8.488549,2.412214
1.708496,0.237549,-2.000000,-39.473282,-20.290077,-2.862595
1.788574,0.630371,-2.000000,-30.587786,-69.015266,-12.580153
1.784668,0.973633,-2.000000,-17.809160,-92.877861,-7.992366
1.741211,1.236816,-1.187500,-0.022901,-108.900764,-5.847328
1.633301,1.504150,-0.041016,22.931297,-112.839691,-9.549619
1.393799,1.683838,1.035645,42.610687,-102.198471,-14.694656
1.029541,1.731689,1.984314,54.854961,-82.145035,-15.412213
0.512939,1.572021,1.984314,53.885498,-62.618320,-9.603053
-0.056396,1.276367,1.984314,51.022900,-40.580154,4.908397
-0.526123,0.974609,1.984314,58.740459,-35.450382,21.923664
-0.882568,0.625244,1.984314,70.190842,-31.122137,38.251907
-1.145264,0.379395,1.984314,79.022903,5.290076,55.648853
-1.270508,0.218750,1.984314,82.206108,9.587787,59.870228
-1.207764,-0.088623,1.984314,46.816795,-1.854962,58.511452
-0.937744,-0.491455,1.984314,-18.335878,-24.832062,59.061069
-0.408447,-0.880371,1.138916,-82.908394,-56.083969,70.503815
0.437256,-1.077148,0.397949,-113.938934,-76.816795,90.412216
1.409912,-1.044434,-0.187744,-120.381676,-74.137405,94.587784
1.984314,-0.954590,-0.676270,-113.114502,-38.679390,75.183205
1.984314,-0.877441,-1.210693,-104.000000,-6.816794,43.732826
1.984314,-0.767578,-1.517090,-76.442749,-3.862595,27.351145
1.984314,-0.601074,-1.978027,-41.015266,9.412213,-17.175573
1.984314,-0.217773,-2.000000,-7.801527,7.931298,-23.839695
1.984314,0.190674,-2.000000,25.458015,27.854961,-36.419846
1.984314,0.594971,-2.000000,59.656490,36.656490,-46.404579
1.984314,0.987549,-2.000000,73.480919,18.427481,-36.442749
1.984314,1.314453,-2.000000,59.473282,-18.900763,-24.992367
1.984314,1.466309,-2.000000,27.030535,-72.274811,-22.625954
1.984314,1.516846,-1.214355,-3.175573,-102.160309,-23.687023
1.972412,1.534912,-0.209961,-11.725191,-102.244278,-25.801527
1.770752,1.545898,0.751221,3.412214,-66.511452,-26.290077
1.458740,1.467529,1.564697,21.763359,-42.030533,-25.824427
1.126709,1.406006,1.984314,46.641220,-23.381680,-21.335878
0.774658,1.367920,1.984314,64.198471,10.503817,-11.419847
0.440186,1.310791,1.984314,71.603050,37.908398,-1.381679
0.120361,1.174805,1.984314,69.053436,64.160309,3.129771
-0.181885,0.933105,1.984314,57.984734,89.603050,2.916031
-0.414795,0.645996,1.984314,42.755726,108.816795,0.816794
-0.589844,0.305420,1.984314,22.671755,121.755722,-2.351145
-0.684082,-0.067139,1.984314,-0.389313,129.320618,-4.633588
-0.666992,-0.429687,1.984314,-33.007633,125.770996,-5.648855
-0.541016,-0.745117,1.984314,-48.244274,115.137405,-6.893130
-0.325684,-0.945312,1.179199,-54.198475,98.923668,-9.603053
-0.042480,-1.010254,0.135742,-51.816795,77.847328,-15.625955
0.266113,-1.022461,-0.924805,-58.862595,55.129772,-19.519083
0.589600,-0.955811,-1.817627,-64.740456,31.458015,-23.709923
0.934570,-0.810303,-2.000000,-66.824425,1.251908,-28.404581
1.301025,-0.578613,-2.000000,-61.862595,-27.580153,-32.687023
1.641846,-0.288330,-2.000000,-50.549618,-51.824429,-38.877861
1.884033,0.039307,-2.000000,-34.259541,-64.152672,-45.511452
1.977295,0.368652,-2.000000,-4.290076,-71.534348,-50.893131
1.984314,0.701172,-2.000000,13.297709,-66.625954,-50.984734
1.946045,1.025391,-2.000000,28.160305,-56.442749,-49.053436
1.824951,1.335693,-1.254883,39.496181,-42.320610,-46.412212
1.633301,1.579346,-0.304688,44.664124,-24.580153,-43.641220
1.368652,1.750244,0.681152,47.030533,-0.908397,-40.450382
1.063232,1.792480,1.620361,51.961834,22.793894,-36.969467
0.714111,1.726074,1.984314,55.854961,44.839695,-41.038166
0.321777,1.588379,1.984314,57.358780,71.526718,-25.709923
-0.029053,1.444336,1.984314,49.679390,98.541985,-8.732824
-0.344971,1.254639,1.984314,20.755726,123.297707,-2.305344
-0.630127,0.952881,1.984314,0.763359,122.435112,-1.450382
-0.850830,0.571289,1.984314,-21.854961,117.801529,-0.862595
-0.974609,0.175049,1.984314,-39.106869,109.488548,1.458015
-0.979004,-0.206787,1.984314,-49.511452,95.251907,2.519084
-0.897949,-0.544922,1.984314,-58.328243,76.687019,-0.374046
-0.739258,-0.828369,1.666992,-61.595421,56.618320,-1.251908
-0.530518,-1.014404,0.632568,-63.984734,33.923664,-4.244275
-0.291748,-1.125244,-0.395996,-62.267174,7.656488,-4.038168
1.642334,0.527100,-2.000000,-50.656490,-38.000000,-7.274809
1.593750,0.799805,-2.000000,-39.053436,-64.419846,-9.343512
1.447266,1.018311,-1.676758,-26.229008,-86.267174,-11.145039
1.201172,1.208496,-0.766602,-14.427481,-109.809158,-9.610687
0.878174,1.312988,0.229004,-3.709924,-132.656494,2.847328
0.533203,1.302979,1.147461,10.732824,-150.496185,17.618320
0.196533,1.197998,1.984314,35.564884,-161.961838,38.992367
-0.074463,1.089844,1.984314,72.809158,-165.862595,55.549618
-0.332275,1.022461,1.984314,115.183205,-150.335876,64.206108
-0.638428,1.059326,1.984314,151.969467,-116.725189,71.870232
-1.062256,0.942871,1.984314,154.213745,-59.503819,94.610687
-1.388916,0.653076,1.984314,143.511444,-51.580154,124.351143
-1.281006,0.394043,1.984314,111.977097,-110.916031,133.885498
-0.751465,0.033691,1.984314,39.114502,-155.259537,141.541992
0.321289,-0.393555,1.984314,-44.458015,-139.832062,145.396942
1.485352,-0.519043,1.984314,-91.045799,-92.679390,137.206100
1.984314,-0.688721,1.984314,-119.519081,-37.213741,89.916031
1.984314,-0.981689,1.399170,-131.496185,14.106871,21.221375
1.984314,-1.420654,0.539551,-126.106873,44.923664,-7.267176
1.984314,-1.514648,-0.189453,-82.152672,85.496185,-0.450382
1.984314,-1.120605,-1.558594,-25.526718,84.992363,-17.374046
1.961914,-0.591309,-2.000000,24.122137,97.519081,-41.969467
1.729492,-0.176758,-2.000000,62.450382,136.587784,-47.404579
1.480713,0.299072,-2.000000,69.557251,126.381676,-12.793893
1.541992,0.849854,-2.000000,33.160305,31.328245,14.404580
1.921387,1.092041,-2.000000,-25.557251,-63.740459,13.480916
1.984314,1.165771,-2.000000,-77.480919,-103.213737,5.290076
1.984314,1.109619,-1.662354,-89.045799,-118.389313,-3.267176
1.984314,1.103027,-0.629883,-62.160305,-122.557251,-15.992367
1.984314,1.230957,0.262939,-14.603053,-103.061066,-30.641222
1.800049,1.393066,1.097656,30.450382,-66.992363,-29.343512
1.499023,1.570801,1.976563,52.213741,-32.618320,-18.618320
1.161133,1.650879,1.984314,56.259541,-0.854962,-11.282443
0.793945,1.605225,1.984314,45.343510,24.923664,-11.709924
0.739014,1.630859,1.631592,47.335876,-10.664123,-9.366412
-1.017822,-0.123047,1.984314,-0.801527,88.717560,14.786260
-0.964600,-0.299316,1.984314,-17.465649,86.022903,16.519083
-0.914307,-0.450439,1.984314,-31.793894,75.984734,23.053434
-0.777100,-0.635986,1.954834,-38.122139,61.900764,30.480917
-0.595459,-0.822754,1.274170,-42.206108,46.687023,32.083969
-0.392822,-0.920654,0.572021,-40.633587,30.404581,30.236641
-0.197021,-0.995605,-0.177979,-46.618320,9.893129,27.893129
0.009277,-1.082764,-0.965332,-55.572517,-12.015267,29.335878
0.205811,-1.183350,-1.534668,-60.488548,-29.175573,35.259541
0.443115,-1.162598,-2.000000,-40.381680,-42.961834,40.732826
0.662354,-1.005371,-2.000000,-14.816793,-73.732826,48.068703
0.848145,-0.708740,-2.000000,22.664122,-94.389313,52.496181
0.969971,-0.206543,-2.000000,59.022900,-97.419846,53.274811
1.134277,0.295410,-2.000000,47.847328,-139.519089,48.755726
1.334961,0.531982,-2.000000,-20.961832,-195.801529,47.458015
1.655273,0.530762,-2.000000,-63.832062,-244.152664,55.030533
1.984314,0.642822,-2.000000,-58.725189,-250.137405,56.587788
1.984314,0.740479,-1.445313,-59.366413,-250.137405,63.916031
1.984314,0.865479,-0.715820,-55.778625,-212.801529,39.595421
1.984314,0.800537,-0.158203,-47.244274,-143.984726,0.625954
1.984314,0.638428,0.358154,-12.290076,-93.473282,-17.748091
1.984314,0.743896,0.710693,44.236641,-41.290077,-11.702291
1.984314,1.180908,0.781006,99.335876,-6.595420,-12.351145
1.984314,1.679199,0.855469,137.488556,33.229008,-23.435114
1.895996,1.984314,1.253662,153.877869,85.122139,-26.801527
1.318848,1.984314,1.881592,141.312973,112.221375,-11.572519
0.838135,1.984314,1.984314,100.664124,94.862595,3.709924
0.563721,1.977051,1.984314,43.977100,60.603054,8.297709
0.473633,1.685059,1.984314,-3.511450,42.259541,15.068703
0.464111,1.421631,1.984314,-24.114504,48.900764,20.709923
0.365479,1.166992,1.984314,-28.893129,81.702293,19.854961
0.446289,-1.042969,0.621826,-37.183205,105.694656,23.183207
0.646484,-1.089111,-0.057373,-26.702290,105.152672,24.412214
0.908203,-1.050049,-0.620850,-16.282442,116.175575,22.366413
1.172119,-0.938721,-1.300049,-13.656488,126.007637,20.916031
1.391846,-0.829590,-1.910400,-18.328245,133.396942,14.221375
1.508789,-0.710693,-2.000000,-27.526718,133.374039,1.931298
1.600830,-0.579102,-2.000000,-40.503819,120.206108,-10.480916
1.713135,-0.399902,-2.000000,-53.870228,100.442749,-19.709923
1.816895,-0.190430,-2.000000,-61.198475,79.106873,-23.114504
1.903320,0.057861,-2.000000,-55.557251,36.419846,-28.038168
1.945068,0.349121,-2.000000,-46.366413,15.732824,-31.671755
1.925537,0.662109,-2.000000,-33.000000,-1.503817,-37.625954
1.846191,0.970215,-1.979980,-16.862595,-16.442749,-43.160305
1.715088,1.255859,-1.198730,-2.847328,-27.526718,-49.496181
1.504150,1.506592,-0.329346,9.748092,-34.015266,-55.175571
1.208008,1.661865,0.572510,16.312977,-37.297710,-57.267174
0.867676,1.692139,1.508301,21.053434,-35.290077,-57.091602
0.535645,1.630371,1.984314,31.190840,-33.824429,-62.656490
0.159912,1.460938,1.984314,36.763359,-28.045801,-55.717556
-0.142334,1.334229,1.984314,41.717556,12.671756,-33.137405
-0.433105,1.154053,1.984314,36.366413,31.000000,-27.404581
-0.706543,0.892090,1.984314,26.167938,44.496181,-25.351145
-0.934082,0.532471,1.984314,13.786260,58.877861,-18.366413
-1.087891,0.156250,1.984314,5.297710,74.259544,-9.587787
-1.144531,-0.209961,1.984314,-2.061069,85.786263,-1.656489
-1.091309,-0.528809,1.984314,-7.526718,94.748093,5.969466
-0.939209,-0.778320,1.984314,-13.847328,100.053436,11.648855
-0.739258,-0.933594,1.175049,-24.183207,98.122139,13.038168
-0.497314,-1.050537,0.204834,-34.305344,89.145035,14.068703
-0.200684,-1.088867,-0.764160,-52.412212,61.946564,10.358779
0.103271,-1.069580,-1.572754,-54.893131,40.473282,6.984733
0.423340,-1.020020,-2.000000,-57.000000,16.236641,2.839695
0.760498,-0.901367,-2.000000,-52.587788,-6.358778,1.442748
1.084229,-0.687988,-2.000000,-47.328243,-25.122137,1.625954
1.321533,-0.407959,-2.000000,-43.152672,-44.007633,-1.969466
1.474854,-0.106934,-2.000000,-36.893131,-66.450378,4.748092
1.619385,0.181396,-2.000000,-23.091602,-90.374046,8.671756
1.736084,0.441162,-2.000000,-5.816794,-114.419846,7.465649
1.791260,0.731201,-2.000000,8.793893,-126.458015,6.030534
1.737549,1.012939,-2.000000,34.954197,-134.832062,4.328244
1.585449,1.286865,-1.436279,49.671757,-131.435120,4.732824
1.394775,1.519287,-0.684082,63.854961,-132.343506,5.916030
1.223633,1.701172,0.307861,78.625954,-141.274811,5.603054
1.022705,1.773438,1.371338,96.328247,-145.885498,5.152672
0.707275,1.674561,1.984314,113.343513,-144.259537,5.900764
0.261475,1.392334,1.984314,138.557251,-129.679382,18.320610
-0.124268,1.236816,1.984314,138.961838,-94.244278,41.870228
-0.322998,1.311768,1.984314,127.572517,-71.755722,81.709923
-0.290771,1.238037,1.984314,76.549622,-75.061066,96.343513
-0.006592,1.032227,1.984314,-28.114504,-72.763359,97.961830
0.464600,0.694580,1.984314,-108.122139,-72.488548,85.358780
0.881836,0.246338,1.984314,-139.320618,-71.137405,60.511452
1.082520,-0.247803,1.984314,-129.664124,-37.534351,32.526718
1.163086,-0.505127,1.984314,-83.503815,19.862595,15.549619
1.152588,-0.442627,1.984314,-24.206106,91.099236,2.229008
0.912598,-0.357178,1.984314,22.458015,146.427475,-10.519084
0.513184,-0.298828,1.984314,50.969467,184.534348,-11.221375
0.157715,-0.247803,1.984314,59.282444,202.839691,2.534351
0.004150,-0.229736,1.242676,41.297710,181.664124,17.145039
0.060791,-0.301514,0.309814,-1.038168,99.152672,11.496183
0.317627,-0.482178,-0.476807,-44.450382,20.442749,2.992366
0.718994,-0.635742,-1.039551,-74.969467,-26.534351,0.534351
1.100342,-0.762939,-1.511963,-84.954201,-44.442749,3.007634
1.362305,-0.840820,-2.000000,-69.229004,-51.389313,-0.572519
1.576660,-0.835205,-2.000000,-42.671757,-49.106869,-4.236641
1.739258,-0.687500,-2.000000,-15.702291,-43.641220,-3.122137
1.906738,-0.481689,-2.000000,1.801527,-37.389313,-1.664122
1.984314,-0.266602,-2.000000,10.709924,-39.152672,-3.068702
1.984314,-0.054687,-2.000000,26.862595,-47.587788,-12.083969
1.984314,0.134766,-2.000000,28.519083,-44.992367,-22.290077
1.984314,0.321289,-2.000000,27.847328,-44.175571,-30.038168
1.984314,0.513184,-2.000000,25.190840,-42.236641,-34.091602
