ax,ay,az,gx,gy,gz
0.768555,0.478271,0.464600,2.175573,3.519084,1.190840
1.755127,0.052734,-2.000000,-2.793893,-106.351143,-8.809160
1.690430,-0.071289,-2.000000,-9.923664,-97.152672,-9.717557
1.959473,0.489258,-2.000000,17.145039,-94.145035,-7.595420
-0.471436,0.451904,1.984314,44.877861,8.503817,15.549619
0.619141,-0.523926,-0.467041,-4.114504,84.221375,20.755726
1.984314,0.933350,-2.000000,-24.694656,-60.572517,-5.908397
-0.154541,0.906494,1.984314,42.030533,-34.335876,2.473282
0.835937,-0.582520,-1.134521,-6.404580,78.770996,16.183207
1.822998,1.431396,-1.214600,-1.725191,-94.671753,-13.748092
-0.465820,-0.084473,1.984314,42.145039,47.488548,13.816793
1.984314,0.384277,-2.000000,-22.465649,-4.969466,-9.045801
0.131836,1.161865,1.984314,49.435116,-59.679390,-7.862596
0.863281,-0.480957,-0.933594,8.824428,68.603050,7.786260
1.771729,1.585938,-0.528320,29.000000,-109.297707,-22.076336
-0.402344,-0.056396,1.984314,50.633587,52.557251,4.603054
1.984314,0.615479,-2.000000,1.007634,-55.885498,-28.106871
-0.042236,1.284424,1.984314,70.786263,-47.511452,-23.984734
0.860107,-0.582275,-1.252686,18.007633,26.618320,-14.442748
1.724854,1.800781,-0.404785,44.068703,-144.206100,-39.030533
-0.384277,-0.138672,1.984314,60.755726,7.969466,-10.412213
1.984314,0.545166,-2.000000,12.404580,-102.129768,-40.992367
0.208008,1.223145,1.984314,80.809158,-75.625954,-47.519085
1.107178,-0.926514,-1.468018,28.442749,23.839695,-44.679390
1.766846,1.659912,-0.181885,70.671753,-98.625954,-73.229004
-0.368408,-0.360107,1.984314,65.183205,82.740456,-38.106869
1.984314,0.467773,-2.000000,49.106869,-50.793892,-63.351147
0.112305,1.340332,1.984314,100.549622,9.740458,-56.198475
0.632324,-0.605225,-1.038086,24.641222,74.625954,-51.664124
1.984314,1.502441,-1.956787,41.496181,-71.854965,-82.908394
-0.276611,0.980713,1.984314,32.335876,63.282444,-64.145035
1.056152,-0.580811,-2.000000,-59.534351,76.328247,-76.366409
1.984314,1.056641,-1.921875,-41.083969,-26.114504,-102.984734
-0.391113,0.564697,1.984314,-27.198473,120.816795,-63.343510
0.039307,-1.178223,-0.371582,-71.503815,165.633591,-34.015266
1.878906,0.193115,-2.000000,8.282443,-2.221374,-46.480915
0.209229,1.492432,1.984314,82.832062,18.954199,-26.351145
-0.697754,0.102783,1.984314,24.305344,86.992363,-4.702290
1.585205,0.215576,-2.000000,-21.541985,-56.129772,-28.412214
1.788574,1.984314,-0.228516,6.847328,-117.396950,-40.900764
-0.241699,1.419434,1.984314,-31.847328,36.534351,-14.511451
0.602783,-0.193359,-0.551270,-106.732826,63.954197,-13.511451
1.984314,0.855957,-2.000000,-71.320610,-46.984734,-41.908398
1.112061,1.922607,1.984314,-13.389313,14.870229,-36.541985
-0.293945,0.359131,1.984314,-54.045803,151.106873,-16.664122
1.451904,-0.388672,-2.000000,-58.618320,59.259541,-41.877861
1.984314,1.424805,-1.864014,15.000000,-5.274809,-60.709923
0.135986,1.633057,1.984314,27.442749,119.687019,-38.435116
-0.188721,-0.074219,1.610596,-27.114504,147.091599,-32.541985
1.931396,0.037842,-2.000000,-14.221375,4.526718,-67.122139
1.961914,1.770264,-0.281982,37.847328,-9.687023,-83.290077
-0.065430,1.274414,1.984314,16.824427,137.137405,-61.931297
0.262451,-0.498779,0.425781,-42.847328,142.137405,-59.870228
1.984314,-0.115479,-2.000000,-10.236641,47.343510,-87.297707
1.537598,1.528809,0.173096,70.984734,101.801529,-85.167938
-0.578369,1.016602,1.984314,61.694656,217.946564,-61.282444
-0.257324,-0.261719,-0.512939,18.854961,161.572525,-64.221375
1.482422,0.675049,-2.000000,10.480916,9.358779,-86.389313
0.938965,1.984314,-0.540039,-24.503817,12.091603,-75.801529
-0.972168,1.681885,1.984314,-139.587784,92.076332,-46.748093
-0.508301,-0.109863,-0.311768,-250.137405,27.022902,-42.343510
1.579590,-0.058350,-2.000000,-250.137405,-117.282440,-56.106869
1.344971,1.115967,1.111328,-164.374039,-74.297707,-52.557251
-0.553711,0.158203,1.984314,-77.374046,86.870232,-47.702290
-0.162354,-1.336182,-0.055420,-15.763359,71.862595,-60.312977
1.349609,0.148926,-2.000000,86.137405,-25.213741,-65.198471
0.549316,1.984314,0.466553,114.038170,0.900763,-52.328243
-1.403076,1.965088,1.984314,-7.908397,39.755726,-47.305344
-0.947021,0.277588,-0.229248,-186.725189,-93.022903,-59.236641
1.108398,0.385010,-2.000000,-250.137405,-232.267181,-49.374046
1.083008,1.462646,0.572021,-250.137405,-161.519089,0.137405
-0.562500,0.536621,1.984314,-250.137405,-24.839695,35.007633
-0.235107,-1.419434,1.238525,-250.137405,-6.625954,7.847328
1.452637,-0.761475,-2.000000,-196.129776,-44.610687,-34.351147
0.869873,1.379150,0.175781,-113.312981,31.870230,-23.725191
-1.400635,1.046387,1.984314,-144.687027,93.022903,3.969466
-1.477295,-1.059570,1.276367,-187.946564,-30.442749,-1.648855
0.611572,-1.042969,-2.000000,-142.267181,-197.129776,-19.534351
1.053467,0.853027,-0.423584,-76.251907,-175.877869,-13.702291
-0.679443,1.000000,1.984314,-87.038170,-70.648857,-0.877863
-0.957764,-0.766357,1.984314,-120.343513,-98.679390,-12.671756
0.900391,-0.866211,-2.000000,-105.221375,-183.335876,-27.832062
1.584473,0.933105,-1.115479,-85.106873,-128.885498,-8.053435
-0.101807,1.241699,1.984314,-123.099236,25.473282,32.190838
0.722900,-1.322021,-2.000000,-178.129776,42.725189,48.969467
1.522461,0.409668,-1.863281,-151.557251,-81.259544,36.687023
0.150146,1.216309,1.984314,-79.664124,-127.343513,34.526718
-1.002686,-0.093262,1.984314,-48.297710,-49.870228,54.885498
0.048096,-1.392334,0.164062,-73.580154,-4.274809,63.198475
1.930176,-0.541504,-2.000000,-62.931297,-72.007637,38.282444
1.984314,1.373535,0.086182,7.694656,-153.091599,2.664122
0.409668,1.563232,1.984314,56.419846,-106.870232,-3.977099
-0.542725,-0.061035,1.984314,38.480915,41.099236,26.152672
0.312500,-1.197021,-0.367920,-15.251908,124.625954,55.778625
1.676514,-0.373779,-2.000000,-23.541985,58.618320,58.167938
1.509277,1.274902,-0.901611,22.129770,-53.610687,40.297710
-0.083252,1.559570,1.984314,55.145039,-43.137405,40.335876
-1.069092,0.180908,1.984314,29.709923,8.083969,50.221375
-0.186523,-1.083252,0.025635,-34.816795,-16.183207,43.564884
1.614502,-0.665527,-2.000000,-52.923664,-117.786263,21.267176
1.984314,1.018799,-1.285156,-9.007633,-186.251907,1.259542
0.987549,1.680664,1.984314,44.320610,-131.671753,5.099236
-0.334473,0.636230,1.984314,45.129772,4.694656,30.335878
-0.062012,-0.817627,1.337158,-4.061069,79.900764,46.755726
1.425781,-0.699707,-2.000000,-42.938931,22.961832,34.534351
1.984314,0.812988,-2.000000,-26.106871,-97.740456,2.259542
1.476563,1.811523,1.510986,13.717557,-100.595421,-8.183207
-0.013916,1.197266,1.984314,27.526718,-1.595420,5.946565
-0.385742,-0.445557,1.984314,4.503817,88.984734,22.832062
0.706299,-1.119385,-0.934326,-14.061069,73.786263,19.923664
1.984314,-0.183594,-2.000000,9.824428,-18.763359,-2.007634
1.984314,1.420898,-0.517334,57.801525,-73.763359,-20.832062
0.685791,1.835938,1.984314,81.893127,-26.229008,-19.419847
-0.428955,0.729004,1.984314,51.610687,80.656487,-1.351145
-0.131836,-0.824219,1.577881,-10.824428,136.900757,15.297709
1.297607,-1.052490,-2.000000,-39.290077,71.007637,13.244275
1.984314,0.340088,-2.000000,14.351145,-4.022901,2.511450
1.072266,1.450195,1.870361,86.938934,17.694656,3.671756
-0.553223,0.714600,1.984314,96.106873,108.145035,17.778625
-0.358643,-0.771729,1.370117,39.496181,115.755722,13.335877
1.465576,-0.458984,-2.000000,15.366412,3.450382,-15.748092
1.984314,1.388184,-1.294434,41.480915,-68.793892,-35.549618
0.527588,1.682373,1.984314,47.366413,16.595419,-21.038168
-0.439941,-0.042236,1.984314,-3.022901,124.694656,2.641221
0.844971,-1.151855,-1.083496,-38.389313,94.671753,-3.931298
1.984314,0.005615,-2.000000,15.824428,-12.282443,-33.488548
1.655762,1.376465,1.359619,88.435112,20.809160,-32.694656
-0.096436,0.792969,1.984314,101.564888,130.793900,-9.351145
-0.249756,-0.932129,1.984314,78.916031,161.687027,0.305344
1.271973,-1.213867,-2.000000,93.465652,78.893127,-15.190840
1.984314,0.210937,-2.000000,163.473282,12.725191,-31.000000
1.238770,1.425537,1.312500,225.519089,90.664124,-23.435114
-0.588623,0.760010,1.984314,197.465652,217.030533,21.916031
-0.871338,-0.870850,1.984314,139.977097,214.824432,48.541985
0.473877,-1.308838,-1.901855,152.725189,133.122131,33.175571
1.684570,0.120850,-2.000000,248.175568,27.832062,0.702290
1.142822,1.844238,-0.025879,248.175568,11.618320,-14.557252
-0.484131,1.984314,1.984314,248.175568,95.923668,-17.832062
-1.174561,0.720947,1.984314,186.900757,140.351151,-21.732824
-0.229492,0.088867,-1.674316,97.687019,86.229004,-37.534351
1.005615,1.159424,-2.000000,65.687019,15.007633,-52.137405
0.684814,1.984314,-0.779297,58.450382,5.748092,-46.099236
-0.849121,1.984314,1.984314,10.061069,51.244274,-20.473282
-1.792236,1.005859,1.984314,-61.625954,61.412212,-0.419847
-1.065430,-0.458984,1.605957,-113.038170,-4.442748,-6.282443
0.598633,-0.397461,-2.000000,-120.633591,-115.656487,-36.809162
1.613281,0.916504,-2.000000,-107.625954,-121.030533,-50.664124
1.046143,1.984314,1.091797,-124.816795,-4.595420,-35.389313
-0.444092,1.695068,1.984314,-180.816788,137.870224,-3.938931
-1.288574,0.271729,1.984314,-231.786255,181.854965,16.083969
-0.773682,-1.048584,0.842529,-229.679382,114.862595,11.633588
0.587402,-1.157227,-2.000000,-163.656494,6.870229,-3.045802
1.382080,-0.172119,-2.000000,-52.083969,-45.190838,-8.404580
0.874512,0.854004,0.437256,46.458015,-15.938931,1.816794
-0.402832,1.122070,1.984314,99.137405,28.786259,11.732824
-1.170654,0.464600,1.984314,86.961830,8.152672,3.885496
-0.623291,-0.407227,1.424072,66.259544,-100.076332,-21.694656
0.883545,-0.379395,-1.958252,42.389313,-186.465652,-44.427483
1.969971,0.466797,-2.000000,13.969465,-147.236649,-34.045803
1.687500,1.423096,0.078369,-0.389313,-9.236641,7.297710
0.255615,1.364746,1.984314,-9.877863,121.923668,46.267174
-0.956543,0.311523,1.984314,-28.610687,158.465652,71.381676
-0.895020,-0.625488,1.442139,-25.435114,44.221375,73.145035
0.427002,-0.393311,-2.000000,-0.007634,-148.122131,41.488548
1.852051,0.660156,-2.000000,-10.694656,-250.137405,2.267176
0.005371,1.722412,1.984314,-56.854961,-174.832062,-5.106870
-0.120605,0.154053,1.984314,-130.030533,-37.374046,12.160305
0.749268,-0.896973,-0.260254,-170.839691,69.450378,31.877863
1.864746,-0.645508,-2.000000,-151.984726,78.022903,38.091602
1.984314,0.657715,-1.861816,-100.572517,-0.900763,27.709923
1.144531,1.526611,1.285645,-50.267174,-63.832062,12.190840
-0.256592,1.392578,1.984314,-18.335878,-52.549618,7.603054
-0.931152,0.340820,1.984314,-27.534351,-6.366412,15.656488
-0.345459,-0.717529,0.638184,-75.038170,24.977098,24.603054
1.055420,-0.846191,-2.000000,-108.893127,6.496183,25.251909
1.984314,-0.004395,-2.000000,-93.412216,-72.488548,12.122137
1.742188,1.132324,-0.062012,-44.068703,-105.030533,5.969466
0.500732,1.534668,1.984314,-5.496183,-73.473282,12.610687
-0.691895,0.902344,1.984314,-7.427481,2.885496,32.221375
-0.854004,-0.338623,1.984314,-45.748093,63.977100,52.030533
0.139160,-1.000732,-0.593506,-83.305344,50.229008,52.954197
1.439209,-0.713379,-2.000000,-79.648857,-10.893129,33.206108
1.915527,0.572998,-1.927490,-50.656490,-82.091606,16.351145
1.272705,1.418457,1.344727,-17.687023,-96.290077,12.770992
-0.025635,1.330322,1.984314,-1.633588,-33.656490,24.343512
-0.875732,0.406250,1.984314,-26.618320,71.442749,45.854961
-0.622314,-0.800537,1.615967,-75.862595,99.488548,55.473282
0.523437,-1.102051,-1.733398,-95.511452,47.053436,50.229008
1.553955,-0.336670,-2.000000,-61.977100,-42.053436,30.618320
1.579834,0.905029,-0.800537,-0.992366,-103.175575,11.732824
0.583252,1.442627,1.984314,44.656490,-89.099236,7.977099
-0.582764,0.978271,1.984314,50.801525,-17.679390,18.885496
-0.872070,-0.242676,1.984314,13.183207,49.022900,32.366413
-0.072021,-1.060303,0.137451,-32.236641,50.198475,35.717556
1.198242,-0.884521,-2.000000,-48.702290,-6.748092,26.969465
1.856201,0.267090,-2.000000,-16.946566,-82.358780,12.755725
1.434082,1.358154,0.477295,15.977099,-86.435112,11.389313
0.234375,1.486084,1.984314,25.801527,-27.175573,19.557251
-0.788086,0.593750,1.984314,11.816793,50.725189,34.916031
-0.827393,-0.795166,1.984314,-8.549619,78.022903,44.458015
0.124023,-1.559082,-0.682861,-4.862596,33.824429,40.625954
1.329346,-1.302002,-2.000000,43.824429,-42.404579,31.572519
1.790039,-0.121094,-2.000000,125.702293,-100.229004,28.824427
1.184326,1.154053,0.626465,179.587784,-111.938934,31.656488
0.000977,1.674805,1.984314,170.396942,-67.694656,41.687023
-0.633545,1.093262,1.984314,90.374046,2.870229,46.763359
-0.236084,-0.083252,1.855957,-5.335878,18.114504,36.160305
0.979736,-0.667480,-1.456787,-53.442749,-21.961832,17.038168
1.981689,-0.206787,-2.000000,-36.167938,-63.320610,0.480916
1.976563,0.815186,-1.198486,11.893129,-63.618320,-1.969466
0.995605,1.340576,1.984314,57.083969,-22.618320,6.862596
-0.256592,0.862061,1.984314,77.816795,43.007633,18.610687
-0.781494,-0.425781,1.984314,80.015266,83.030533,23.610687
-0.282715,-1.544678,0.985596,94.587784,61.809162,19.312977
0.877197,-1.634521,-2.000000,145.198471,-5.068702,12.610687
1.706787,-0.716797,-2.000000,241.984726,-81.030533,12.770992
1.543213,0.953857,-0.927246,248.175568,-92.793892,18.251909
0.538574,1.984314,1.984314,248.175568,-83.854965,2.916031
-0.429443,1.984314,1.984314,182.282440,-51.541985,-15.267176
-0.423828,0.453857,1.984314,-9.580153,7.366412,-9.145039
0.605713,-0.717041,-0.754639,-112.969467,-11.068703,10.992367
1.947266,-0.601562,-2.000000,-98.961830,-51.465649,5.778626
1.984314,0.567627,-2.000000,-45.618320,-40.000000,-3.809160
1.537842,1.457275,0.845215,-10.969465,6.053435,4.198473
0.198242,1.316650,1.984314,-10.580153,66.381676,17.641222
-0.650879,0.234619,1.984314,-34.465649,101.541985,21.282442
-0.434814,-1.006104,1.698486,-26.305344,51.671757,5.480916
0.663574,-1.317139,-1.596680,16.770992,-42.732826,-15.519084
1.813232,-0.632568,-2.000000,77.694656,-107.465652,-29.954199
1.984314,0.811279,-2.000000,120.793892,-97.335876,-32.175571
1.343994,1.895752,1.018555,118.206108,-34.244274,-25.946566
0.138184,1.984314,1.984314,57.564884,30.511450,-25.053434
-0.554687,1.019775,1.984314,-46.183205,56.213741,-26.381680
-0.215820,-0.330078,0.798340,-138.251907,23.832062,-21.702290
0.956055,-0.850098,-2.000000,-146.931305,-30.671755,-19.244274
1.911621,-0.197021,-2.000000,-89.328247,-58.106869,-19.671755
1.790283,1.114990,-1.569336,-61.534351,-24.442749,-9.038168
0.728271,1.865723,1.927979,-75.854965,30.389313,2.282443
-0.525635,1.362061,1.984314,-119.190842,66.053436,12.511451
-0.924561,-0.124512,1.984314,-168.450378,40.167938,24.007633
-0.241211,-1.177246,0.455078,-166.511444,-20.595419,25.954199
1.010254,-1.062256,-2.000000,-134.267181,-93.167938,15.000000
1.857666,-0.090820,-2.000000,-97.099236,-112.893127,10.251908
1.704102,1.161865,-0.239014,-59.083969,-62.954197,14.839695
0.673828,1.682617,1.984314,-39.679390,7.526718,18.801527
-0.009033,-0.815674,0.734863,-61.419846,46.305344,15.274809
1.268311,-0.539795,-1.837646,-75.709923,18.770992,-2.030534
1.984314,0.478271,-2.000000,-62.404579,-30.977098,-20.778625
1.820313,1.541748,0.314209,-18.183207,-61.671757,-33.458015
0.694336,1.791748,1.984314,32.465649,-41.412212,-33.000000
-0.484619,1.053955,1.984314,68.916031,26.320610,-17.473282
-0.883057,-0.343994,1.984314,74.213737,111.671753,6.000000
-0.320801,-1.307617,0.716553,71.908394,142.793900,18.450382
0.850342,-1.174561,-2.000000,89.656487,97.770996,6.862596
1.706543,-0.117676,-2.000000,137.839691,1.526718,-24.854961
1.621582,1.224365,-0.722412,211.206100,-93.664124,-53.839695
0.635986,1.836670,1.984314,248.175568,-101.625954,-56.526718
-0.501221,1.550293,1.984314,242.030533,-47.900764,-45.122139
-0.854248,0.442139,1.984314,166.358780,24.358778,-26.335878
-0.167969,-0.431396,0.052490,61.633587,60.961834,-10.167939
1.124023,-0.470947,-2.000000,-16.923664,31.625954,-4.351145
1.982422,0.349365,-2.000000,-28.709923,-20.419847,-9.106871
1.731689,1.251709,-0.340820,25.267176,-42.366413,-16.167938
0.526855,1.362549,1.984314,86.251907,-13.664123,-4.290076
-0.645996,0.701660,1.984314,122.358780,46.083969,20.435114
-0.856934,-0.302246,1.984314,111.267174,90.648857,36.061069
-0.037842,-0.847900,-0.605713,85.274811,44.580154,23.916031
1.312256,-0.582764,-2.000000,65.145035,-51.145039,0.641221
1.984314,0.558105,-2.000000,59.274811,-127.824425,-14.580153
1.692383,1.820557,-0.180664,48.961834,-151.129776,-14.450381
0.510254,1.984314,1.984314,-5.938931,-101.389313,0.687023
-0.353760,0.775879,1.984314,-77.977097,-4.854962,7.351145
-0.138916,-0.734863,1.977783,-163.862595,65.305344,59.122139
1.111328,-1.242676,-1.250488,-157.786255,82.221375,50.839695
1.984314,-0.672363,-2.000000,-104.435112,18.564886,14.679389
1.961182,0.647217,-1.486328,-15.679389,-56.603054,0.908397
0.957275,1.611328,1.721924,46.038166,-58.312977,0.770992
-0.324463,1.443115,1.984314,53.137405,-19.137405,0.633588
-0.788574,0.286621,1.984314,3.206107,10.854961,8.099236
-0.055176,-0.765381,0.344238,-55.091602,-5.862596,14.145039
1.308350,-0.710205,-2.000000,-75.572517,-55.175571,6.923664
1.984314,0.395264,-2.000000,-53.900764,-102.244278,-3.450382
1.820313,1.580078,-0.421875,-20.442749,-95.221375,-3.770992
0.626221,1.796631,1.984314,8.610687,-26.045801,11.061069
-0.560059,1.016602,1.984314,20.709923,55.587788,32.687023
-0.824463,-0.294678,1.984314,3.389313,91.458015,47.290077
-0.055420,-1.067871,-0.027100,11.396947,29.290077,42.557251
1.288818,-0.721680,-2.000000,44.076336,-79.709923,19.030535
1.984314,0.525879,-2.000000,81.427483,-148.129776,-7.091603
1.790283,1.695068,-0.134033,108.221375,-123.465652,-9.503817
0.655762,1.930176,1.984314,99.381676,-27.236641,8.259542
-0.383789,1.088867,1.984314,54.870228,70.885498,33.351147
-0.493652,-0.268799,1.984314,-2.458015,101.183205,47.648853
0.375488,-0.918213,-0.893799,-33.076336,41.175571,41.763359
1.607422,-0.480469,-2.000000,-26.213741,-62.221375,22.358778
1.984314,0.780762,-2.000000,12.099236,-129.312973,3.396947
1.691406,1.694092,0.486816,30.923664,-82.854965,4.435114
0.481934,1.623535,1.984314,24.320610,17.809160,20.396946
-0.437988,0.596680,1.984314,-6.358778,92.938934,37.244274
-0.351563,-0.716797,1.938477,-36.824429,87.702293,40.793892
0.621094,-1.194580,-1.514160,-43.244274,9.511451,28.847328
1.722168,-0.575928,-2.000000,-16.099237,-78.832062,12.557252
1.984314,0.838135,-2.000000,23.053434,-115.587784,3.465649
1.379395,1.787354,0.825195,34.847328,-75.534348,8.129771
0.184814,1.700195,1.984314,3.480916,4.442748,25.709923
-0.563721,0.726807,1.984314,-60.045803,61.190838,42.923664
-0.334961,-0.545166,1.683594,-91.740456,41.091602,45.335876
0.714600,-1.052246,-1.624756,-81.671753,-19.091602,36.366413
1.773193,-0.451416,-2.000000,-37.175571,-70.519081,24.877863
1.964844,0.902588,-2.000000,10.732824,-74.847328,20.458015
1.216309,1.879150,1.065674,26.000000,-40.923664,25.145039
0.076660,1.852051,1.984314,-8.290076,6.045802,29.045801
-0.560059,0.740479,1.984314,-67.320610,35.671757,31.305344
-0.247803,-0.604004,1.893311,-104.045799,23.832062,29.396946
0.808105,-1.148438,-1.238281,-94.992363,-20.755726,19.786259
1.874756,-0.658447,-2.000000,-41.297710,-72.549622,1.564885
1.984314,0.576416,-2.000000,8.709924,-59.198475,-6.580153
1.560791,1.571533,0.566895,34.213741,-10.503817,-7.977099
0.439209,1.749512,1.984314,16.969465,31.923664,-10.969465
-0.319580,0.947510,1.984314,-22.923664,40.381680,-19.786259
-0.136230,-0.343994,1.984314,-56.000000,9.229008,-36.435116
0.893066,-1.058838,-0.955566,-58.832062,-41.465649,-56.977100
1.984314,-0.719482,-2.000000,-25.091602,-69.587784,-72.167938
1.984314,0.490234,-2.000000,25.587786,-45.916031,-76.969467
1.838135,1.566406,0.156982,63.679390,14.374045,-74.091606
-0.264893,-0.373535,1.984314,52.702290,88.862595,-68.305344
0.579834,-0.919434,-1.294434,2.854962,94.091606,-71.702293
1.674561,-0.523193,-2.000000,-33.534351,49.534351,-77.465652
1.984314,0.592773,-2.000000,-34.564884,-14.396947,-83.244278
1.441895,1.458252,-0.028076,-14.351145,-57.358780,-86.351143
0.167480,1.459473,1.984314,9.961832,-39.290077,-79.984734
-0.790039,0.553711,1.984314,19.702290,29.610687,-64.526718
-0.752441,-0.600098,1.853760,2.572519,87.122139,-50.160305
0.193115,-1.046631,-1.495361,-31.099237,86.366409,-46.770992
1.261475,-0.597900,-2.000000,-64.122139,29.412214,-49.801525
1.447510,0.531494,-2.000000,-73.213737,-42.358780,-46.709923
0.494873,1.183350,0.476562,-82.251907,-21.229008,-17.465649
-1.043945,0.846924,1.984314,-99.931297,61.541985,27.969465
-2.000000,-0.431885,1.984314,-142.305344,162.030533,76.740456
-2.000000,-1.831543,1.468262,-181.633591,196.259537,119.091606
-1.287842,-2.000000,-1.844238,-170.694656,104.610687,139.511444
-0.230713,-1.404785,-2.000000,-96.595421,-67.908394,129.648849
0.340576,0.246826,-2.000000,-5.335878,-240.351151,90.870232
-0.014893,1.467773,0.371582,33.366413,-250.137405,63.038166
-0.765869,1.873779,1.984314,23.038168,-250.137405,72.740456
-0.780518,1.120850,1.984314,-50.244274,-250.137405,88.465652
0.612549,-0.199951,1.984314,-140.954193,-250.137405,93.114502
1.984314,-1.751953,-0.502930,-188.946564,-250.137405,121.847328
1.984314,-1.186523,-2.000000,-166.213745,-250.137405,164.496185
1.984314,-0.576904,-2.000000,-97.366409,-250.137405,36.572517
1.984314,0.512451,-0.334229,-8.748092,-64.702293,-81.908394
1.984314,1.479736,1.984314,138.847336,110.946564,-92.946564
1.402100,1.497803,1.984314,168.748093,248.175568,-4.022901
0.798828,0.493896,1.984314,67.259544,248.175568,65.618324
1.113525,-0.582031,0.097656,-30.694656,248.175568,31.374046
1.858154,-1.040283,-2.000000,-36.435116,212.801529,-49.900764
1.984314,-0.332275,-2.000000,53.832062,49.267174,-102.595421
1.984314,1.192627,-2.000000,155.282440,-80.259544,-109.541985
1.858887,1.984314,0.943359,201.206100,-85.717560,-95.137405
0.812988,1.984314,1.984314,187.969467,7.236641,-80.221375
0.118896,1.571777,1.984314,138.893127,109.580154,-85.572517
0.177979,0.397949,1.291016,72.809158,169.992371,-111.778625
0.844727,-0.198486,-2.000000,9.702291,167.694656,-126.190842
1.685303,0.064453,-2.000000,-25.000000,106.580154,-124.419846
1.801025,0.943115,-2.000000,-27.702290,52.274811,-117.748093
1.062256,1.422607,0.362061,-6.282443,63.083969,-101.923668
-0.151123,1.125977,1.984314,2.717557,132.381683,-75.824425
-1.019775,0.079590,1.984314,0.893130,206.809158,-48.709923
-0.993896,-1.092529,1.749512,-7.213740,233.687027,-29.694656
-0.196777,-1.587158,-1.703857,-8.007633,202.938934,-20.954199
0.667969,-1.171387,-2.000000,2.625954,153.969467,-17.160305
0.732178,-0.072510,-2.000000,21.671755,114.435112,-7.992366
-0.090820,0.760498,-0.397949,26.396946,109.343513,6.343512
-1.447754,0.708740,1.984314,4.862596,172.038162,35.007633
-2.000000,-0.142334,1.984314,-77.717560,213.603058,67.290077
-2.000000,-1.323730,1.740234,-109.740456,194.099243,106.114502
-2.000000,-1.932129,-1.335938,-91.022903,65.809158,115.916031
-0.990723,-1.666504,-2.000000,-39.664124,-114.083969,96.335876
-0.124756,-0.666748,-2.000000,5.900764,-248.877869,65.450378
0.021240,0.546143,-1.788818,37.870228,-250.137405,54.702290
-0.468262,1.167236,1.366699,32.923664,-250.137405,73.618324
-0.972656,1.334473,1.984314,10.916031,-250.137405,108.022903
-0.347656,0.880127,1.984314,-20.694656,-250.137405,82.076332
1.984314,-0.088379,1.053467,-22.778625,-250.137405,54.290077
1.984314,-1.557373,-1.461914,-151.603058,-250.137405,248.175568
1.984314,0.721680,-2.000000,-250.137405,78.000000,91.717560
1.984314,-0.069336,-2.000000,-246.183212,89.580154,-208.793900
1.984314,0.751709,0.439209,157.549622,235.236649,-227.534348
0.909912,1.553955,1.984314,248.175568,248.175568,-37.656490
0.144043,1.416260,1.984314,190.190842,248.175568,68.198471
0.582764,0.715088,1.984314,50.221375,175.839691,22.564886
1.145020,0.115479,-0.927002,-26.053434,78.045799,-44.633587
1.984314,0.136963,-2.000000,-3.167939,-27.900763,-58.244274
1.984314,0.765625,-2.000000,61.160305,-82.763359,-29.076336
1.984314,1.444092,-0.810303,113.832062,-58.748093,10.290076
1.534668,1.819336,1.984314,133.595413,13.893129,23.427481
0.484375,1.288818,1.984314,91.610687,95.328247,13.877863
-0.032715,0.194580,1.984314,49.297710,95.732826,-9.229008
0.287598,-0.606445,0.770752,46.083969,39.725189,-27.679390
1.256348,-0.740479,-2.000000,63.297710,-33.274811,-42.854961
1.984314,-0.084717,-2.000000,73.473282,-67.152672,-58.603054
1.984314,1.021240,-2.000000,78.572517,-31.793894,-64.396950
1.560791,1.772705,-0.024414,66.870232,66.297707,-54.083969
0.308105,1.610352,1.984314,32.641220,180.488556,-33.694656
-0.747559,0.592285,1.984314,-10.458015,248.175568,-10.854961
-1.022217,-0.708496,1.984314,-23.435114,248.175568,5.480916
1.362549,-0.345947,-2.000000,12.992367,203.938934,7.923664
0.992920,0.724121,-1.612305,82.625954,140.954193,6.786260
-0.109375,1.154785,1.478271,159.946564,111.969467,7.213740
-1.340332,0.676270,1.984314,216.770996,121.244278,14.030535
-1.921387,-0.566895,1.984314,217.015274,168.068695,31.442749
-1.635986,-1.675781,0.563477,173.458008,181.671753,55.786259
-0.659912,-1.827881,-2.000000,109.900764,115.541985,68.534348
0.322510,-0.913574,-2.000000,69.404579,1.923664,62.618320
0.735596,0.478027,-2.000000,54.480915,-111.755722,42.793892
0.405518,1.445557,-0.443848,56.083969,-191.549622,24.251909
-0.371338,1.554199,1.984314,45.175571,-201.160309,13.633588
-1.070801,0.725342,1.984314,5.129771,-116.961830,21.290077
-1.158691,-0.509033,1.984314,-36.946564,-11.442748,45.206108
-0.606689,-1.345703,-0.060547,-85.244278,70.282440,65.633591
0.218750,-1.496826,-2.000000,-145.374039,92.580154,86.793892
0.883301,-0.788574,-2.000000,-188.687027,0.511450,91.114502
0.967285,0.313721,-2.000000,-186.374039,-152.076340,98.488548
0.650391,1.306152,0.513672,-113.984734,-250.137405,93.282440
0.026611,1.959229,1.984314,-49.587788,-250.137405,137.061066
0.267578,1.447021,1.984314,-60.656490,-250.137405,228.450378
1.912598,-0.753174,1.984314,-184.450378,-250.137405,247.419846
1.984314,-2.000000,-1.775146,-250.137405,-250.137405,193.297714
1.984314,-0.887451,-2.000000,-233.984726,190.435120,-100.045799
1.984314,0.258057,-2.000000,5.839694,-6.656488,-208.709930
1.984314,1.974609,-0.486816,168.419846,-34.916031,-103.412216
1.984314,1.984314,1.623779,52.900764,66.748093,-18.923664
1.214355,1.416016,1.984314,54.213741,43.633587,-53.694656
0.762207,0.198730,1.984314,57.709923,117.595421,-92.969467
1.295898,-0.198242,-0.086426,25.244274,192.717560,-76.206108
1.984314,0.031982,-2.000000,17.977098,167.007629,-50.534351
1.984314,0.691162,-2.000000,36.290077,60.740459,-34.969467
1.984314,1.422363,-2.000000,43.603054,-15.412213,-33.709923
1.984314,1.596191,0.749756,61.633587,-21.687023,-54.106869
1.135254,1.288330,1.984314,78.396950,58.458015,-98.343513
0.269531,0.416504,1.984314,71.694656,174.129776,-145.358780
0.032227,-0.594727,1.979004,54.091602,190.702286,-144.358780
0.661621,-1.107178,-1.133057,37.015266,155.427475,-121.908394
1.611084,-0.799561,-2.000000,20.870230,112.916031,-118.106873
1.973145,0.280518,-2.000000,15.465649,71.603050,-119.206108
1.484131,1.298828,-1.395020,21.511450,60.893131,-108.374046
0.299316,1.587646,1.852539,20.007633,132.412216,-83.961830
-0.880371,0.899170,1.984314,-26.580153,208.343506,-48.419846
-1.299316,-0.327393,1.984314,-92.015266,241.977097,-12.374045
-0.834229,-1.165283,-0.003174,-128.809158,216.526718,8.496183
0.137939,-1.307129,-2.000000,-138.618317,148.343506,12.954199
0.847656,-0.617432,-2.000000,-111.488548,83.862595,12.213740
0.728760,0.468262,-2.000000,-50.488548,42.358780,14.007633
-0.153320,1.193115,0.707031,2.916031,33.717556,20.984734
-1.254395,1.224854,1.984314,21.702290,55.854961,24.427481
-1.911621,0.446045,1.984314,-8.427481,74.801529,19.091602
-1.764648,-0.496826,1.671143,-86.450378,38.045803,7.480916
-0.903809,-1.118164,-1.361084,-134.694656,-36.748093,-4.396946
0.179199,-1.239746,-2.000000,-135.381683,-107.274811,-8.946565
0.796631,-0.713623,-2.000000,-82.465652,-140.656494,2.969466
0.717529,0.146240,-0.980469,-12.511451,-141.396942,21.961832
0.034668,0.803223,1.901855,23.022902,-106.152672,33.664124
-0.922607,0.803955,1.984314,1.045802,-27.541985,43.618320
-1.460938,0.030762,1.984314,-41.961834,16.480917,65.175575
-1.162354,-0.689209,1.425293,-76.503815,-25.946566,80.267174
-0.101563,-0.664551,-1.781494,-104.282440,-149.068695,81.305344
1.115234,-0.443359,-2.000000,-156.847336,-250.137405,64.198471
1.984314,-0.547852,-2.000000,-117.900764,-250.137405,166.450378
1.984314,0.108398,-1.130371,-149.160309,-250.137405,248.175568
1.984314,0.680176,1.459229,-79.305344,-250.137405,199.022903
1.984314,0.110840,1.984314,-64.778625,-250.137405,87.473282
1.984314,0.351563,1.984314,-65.045799,132.183212,-81.564888
1.984314,-0.441406,-0.342529,-44.801525,191.625961,-170.839691
1.984314,0.049805,-2.000000,20.137405,112.473282,-116.335876
1.984314,0.976318,-2.000000,44.740459,54.503819,-105.114502
1.984314,1.851563,-2.000000,73.114502,-50.389313,-122.541985
1.905029,1.936768,1.775146,89.145035,41.900764,-76.419846
0.815918,1.397461,1.984314,59.251907,159.839691,-1.984733
0.587646,0.588867,1.984314,33.435116,194.946564,19.076336
1.142578,-0.134766,0.758301,32.625954,160.007629,-16.625954
1.982422,-0.629395,-2.000000,46.053436,65.236641,-49.427483
1.984314,-0.475586,-2.000000,100.641220,2.022901,-73.259544
1.984314,0.533447,-2.000000,153.221375,36.496181,-100.961830
1.937012,1.305664,-0.147217,170.732819,93.450378,-114.541985
0.570557,1.606934,1.984314,155.702286,169.519089,-109.022903
-0.512207,0.951172,1.984314,91.122139,220.770996,-95.435112
1.204346,-0.384033,-2.000000,3.213740,182.076340,-85.854965
1.651123,0.416260,-2.000000,-30.916031,108.847328,-82.503815
1.251221,1.040771,-1.233887,-16.961832,61.503819,-77.694656
0.153564,1.083252,1.823730,8.877863,73.236641,-56.015266
-0.969727,0.405273,1.984314,24.977098,143.343506,-21.694656
-1.434082,-0.701416,1.984314,11.923664,234.282440,15.213740
-1.079590,-1.512451,-0.041016,-19.717558,248.175568,42.000000
-0.195801,-1.550049,-2.000000,-47.320610,248.175568,48.885498
0.476807,-0.729736,-2.000000,-57.183205,143.946564,34.328243
0.430908,0.304688,-2.000000,-48.557251,10.786260,5.725191
-0.317383,0.755371,0.476562,-17.618320,-70.129768,-16.580153
-1.376221,0.564453,1.984314,2.190840,-66.007637,-12.229008
-1.978760,-0.197021,1.984314,3.625954,-23.763359,6.549618
-1.905762,-1.126709,1.984314,-12.045801,24.442749,26.229008
-1.151855,-1.458740,-0.690674,-31.679390,19.564886,37.412212
-0.097168,-1.211914,-2.000000,-52.916031,-37.251907,33.091602
0.521484,-0.432373,-2.000000,-70.053436,-90.419846,29.290077
0.472168,0.539062,-1.672852,-60.167938,-135.030533,32.778625
-0.111572,1.080811,0.843994,-39.557251,-167.267181,43.015266
-0.753662,1.461426,1.984314,-35.641220,-223.557251,61.473282
-1.319580,1.004150,1.984314,-99.938934,-250.137405,62.992367
-0.537354,0.113281,1.984314,-66.083969,-250.137405,169.198471
1.909668,-0.683105,0.240967,-3.038168,-250.137405,211.305344
1.984314,-1.462158,-2.000000,-171.908401,-250.137405,248.175568
1.984314,0.049805,-2.000000,-248.977097,-190.687027,157.862595
1.984314,-0.081787,-2.000000,-250.137405,160.778625,-205.015274
1.984314,1.392822,0.298096,6.274809,136.770996,-250.137405
0.473145,1.787354,1.984314,202.038162,248.175568,-151.610687
-0.315186,1.373291,1.984314,208.351151,229.007629,13.847328
0.720215,0.558350,1.151611,89.435112,135.633591,0.664122
1.916992,0.096924,-2.000000,11.580153,30.824427,-55.923664
1.984314,0.608887,-2.000000,-0.496183,-48.679390,-35.251907
1.984314,1.499512,-1.221680,41.213741,-48.068703,-14.839695
1.984314,1.758301,1.447266,57.053436,8.419847,-0.068702
1.055908,1.256348,1.984314,50.687023,85.534348,-1.167939
0.354248,0.106445,1.984314,57.351147,136.954193,5.877862
0.416016,-0.766357,1.966309,74.114502,183.061066,-13.160305
1.011475,-0.942871,-1.393066,71.343513,147.931305,-53.854961
1.844727,-0.562561,-0.000061,-0.007634,-0.007634,-0.007634
1.984314,0.914795,-2.000000,56.099236,3.473282,-118.809158
1.773438,1.754395,-1.482178,26.847328,-0.648855,-111.717560
0.712158,1.837646,1.658691,-13.946565,71.587784,-89.381676
-0.406250,1.024414,1.984314,-48.183205,169.320618,-64.969467
-0.932129,-0.316650,1.984314,-86.053436,244.366409,-43.251907
-0.654785,-1.381592,0.630127,-102.709923,248.175568,-25.335878
0.224121,-1.511963,-2.000000,-80.961830,201.854965,-19.938931
1.059570,-0.731201,-2.000000,-32.938931,125.160309,-27.992367
1.182129,0.465576,-2.000000,12.206107,75.580154,-39.381680
0.452881,1.251221,-0.355957,30.832062,79.648857,-44.908398
-0.732178,1.169922,1.984314,20.931297,119.259544,-42.114502
-1.626709,0.206055,1.984314,-23.671755,168.977097,-32.610687
-1.739014,-1.135254,1.984314,-63.763359,161.190842,-26.190840
-1.057861,-1.917969,-1.083008,-69.358780,89.305344,-21.091602
-0.084717,-1.770020,-2.000000,-42.442749,-4.900764,-17.984734
0.473389,-0.766113,-2.000000,12.404580,-84.633591,-11.526717
0.395508,0.477051,-1.631836,69.633591,-135.106873,-9.748092
-0.253418,1.141113,1.477783,99.916031,-124.015266,-12.106871
-1.167236,1.012939,1.984314,72.938934,-50.511452,-7.664122
-1.881592,0.129639,1.984314,3.267176,45.396946,16.404581
-2.000000,-0.905273,1.984314,-48.160305,64.106873,58.603054
-1.352295,-1.105225,-0.473633,-72.114502,-92.770996,81.015266
-0.198730,-0.870850,-2.000000,-89.694656,-250.137405,117.480919
1.486572,0.018066,-2.000000,21.213741,-250.137405,195.091599
1.984314,1.130615,-2.000000,8.946565,-250.137405,248.175568
1.984314,1.308838,0.570312,-190.488556,-250.137405,248.175568
1.984314,1.984314,1.984314,-120.916031,-250.137405,217.931305
1.984314,0.614502,1.984314,-250.137405,146.396942,-90.824425
1.984314,-0.533203,1.573242,-234.656494,126.419846,-250.137405
1.824463,-0.741943,-0.163818,11.259542,0.847328,-250.137405
1.984314,-0.203125,-2.000000,90.725189,-9.389313,-65.343513
1.984314,0.645264,-2.000000,75.770996,30.091602,81.450378
1.984314,1.508545,-1.249512,56.541985,171.717560,109.503815
1.979248,1.895264,1.564941,26.633587,216.259537,90.435112
0.726562,1.514404,1.984314,9.488549,153.809158,73.068703
0.203125,0.381592,1.984314,27.900763,81.908394,60.129772
0.612305,-0.707764,1.984314,73.099236,36.190838,11.572519
1.595947,-1.132568,-0.503418,139.473282,-4.786260,-82.038170
1.984314,-0.640625,-2.000000,198.839691,10.351145,-154.099243
1.984314,0.514404,-2.000000,196.572525,51.427483,-150.656494
1.984314,1.435791,-1.975586,152.091599,129.328247,-122.053436
-0.483643,0.179687,1.984314,96.213737,248.175568,-99.832062
-0.279541,-0.672607,0.384277,46.770992,248.175568,-94.083969
0.614746,-0.736816,-2.000000,5.687023,248.175568,-99.305344
1.456787,-0.023682,-2.000000,-28.854961,182.992371,-111.053436
1.557373,0.913330,-2.000000,-43.328243,99.206108,-117.511452
0.796875,1.379883,0.045654,-35.984734,70.847328,-111.587784
-0.397461,1.057617,1.984314,-13.587787,119.045799,-89.435112
-1.210205,0.107910,1.984314,7.465649,217.076340,-62.549618
-1.220459,-1.021484,1.517334,0.351145,248.175568,-38.267174
-0.541016,-1.610107,-1.902100,-34.488548,248.175568,-18.816793
0.232178,-1.312744,-2.000000,-59.312977,248.175568,-2.839695
0.348145,-0.401123,-2.000000,-41.938931,211.847336,20.175573
-0.339355,0.401367,-1.643799,4.793893,128.312973,46.633587
-1.433105,0.650391,1.349609,52.740459,63.732826,67.511452
-2.000000,0.371094,1.984314,53.931297,56.984734,70.572517
-2.000000,-0.524414,1.984314,3.587786,80.320610,66.557251
-2.000000,-1.315674,-0.162109,-62.938931,31.511450,68.977097
-1.370361,-1.846680,-2.000000,-102.435112,-77.824425,83.488548
-0.385742,-1.691406,-2.000000,-106.534348,-181.221375,103.442749
0.100342,-0.510254,-2.000000,-58.580154,-210.160309,99.221375
-0.064209,0.985107,-0.760742,18.732824,-250.137405,103.480919
0.186035,1.984314,1.984314,73.816795,-250.137405,88.396950
0.808838,1.984314,1.984314,49.221375,-250.137405,-37.114502
1.984314,-1.129883,1.984314,-92.259544,-250.137405,248.175568
1.984314,0.585205,-0.191406,-133.717560,-250.137405,248.175568
1.984314,-2.000000,-2.000000,-250.137405,248.175568,-164.534348
1.984314,-1.803955,-2.000000,-250.137405,248.175568,-250.137405
1.984314,-0.472412,-2.000000,101.755722,248.175568,-250.137405
1.559326,0.861572,-1.177979,193.709930,248.175568,-184.229004
0.046875,1.722656,1.984314,248.175568,248.175568,124.236641
-0.692383,1.933838,1.984314,248.175568,248.175568,209.633591
-0.782715,1.984314,1.984314,194.312973,248.175568,122.465652
-0.258057,1.685059,0.079590,48.931297,178.839691,-28.389313
0.663574,0.776611,-2.000000,-57.519085,0.885496,-104.045799
1.700195,0.092041,-2.000000,-63.931297,-205.045807,-90.557251
1.984314,0.140381,-1.728760,9.152672,-250.137405,-84.748093
1.984314,0.861572,1.456787,115.969467,-250.137405,-137.328247
1.213135,1.120361,1.984314,193.923660,-19.694656,-154.908401
0.180664,0.369141,1.984314,158.251907,160.198471,-82.129768
0.302490,-0.169678,1.342285,57.435116,201.335876,-7.061069
1.157227,-0.344727,-1.848633,-16.702290,176.534348,-28.793894
1.896484,0.031494,-2.000000,-44.694656,95.213737,-80.282440
1.945557,0.748047,-2.000000,-30.709923,22.480917,-109.541985
1.179443,1.401123,-0.059082,-21.519083,26.702290,-80.885498
0.077393,1.449707,1.984314,-23.893129,101.061066,-56.557251
-0.779541,0.694336,1.984314,-48.725189,171.335876,-40.854961
-0.841797,-0.501953,1.984314,-81.007637,206.221375,-43.358780
-0.176514,-1.223389,-1.169189,-101.541985,194.526718,-42.679390
0.715576,-1.188477,-2.000000,-95.442749,151.900757,-36.427483
1.047607,-0.454590,-2.000000,-72.633591,131.893127,-19.916031
0.491943,0.297119,-1.595215,-27.961832,162.091599,12.977099
-0.697510,0.599854,1.323242,-4.396946,199.129776,51.992367
-1.901367,0.284668,1.984314,-2.969466,210.290070,83.274811
-2.000000,-0.535400,1.984314,-21.259542,161.488556,94.557251
-1.956787,-1.170898,0.093018,-42.297710,52.793892,80.137405
-0.893311,-1.306641,-2.000000,-48.458015,-83.442749,49.450382
0.171631,-0.947998,-2.000000,-49.221375,-171.282440,22.564886
0.442383,-0.302490,-2.000000,-42.267174,-183.396942,35.923664
-0.086426,0.237061,-0.975342,-25.786259,-169.885498,79.824425
-1.048096,0.385010,1.984314,2.641221,-145.954193,122.664124
-1.692383,0.285889,1.984314,1.740458,-63.328243,122.671753
-1.884766,-0.004395,1.984314,-1.717557,-131.290070,126.824425
-1.105469,0.140137,0.986328,-18.145039,-250.137405,106.503815
0.305176,0.026123,-1.296143,-250.137405,-250.137405,248.175568
1.984314,-0.206543,-1.833984,-230.885498,-250.137405,248.175568
1.984314,-0.521729,-2.000000,-75.167938,-250.137405,248.175568
1.984314,-0.376465,-0.435547,-250.137405,-250.137405,45.923664
1.984314,0.572754,-0.234619,-250.137405,248.175568,-250.137405
1.984314,1.582031,1.984314,168.862595,248.175568,-250.137405
0.810303,1.374512,1.984314,128.824432,248.175568,-168.358780
0.788086,0.804443,0.452393,-4.900764,248.175568,-98.755722
1.640625,0.040771,-2.000000,49.862595,200.305344,-155.534348
1.697021,0.644287,-2.000000,122.793892,-33.809162,-139.480911
1.213867,1.879150,0.144531,167.931305,-46.412212,-12.137404
0.562744,1.984314,1.984314,157.946564,47.190838,50.496181
0.250732,1.201660,1.984314,87.038170,96.618324,28.145039
0.677490,-0.127197,1.652832,39.106869,62.656490,-21.519083
1.588623,-0.743164,-1.593994,50.183205,20.404581,-65.274811
1.984314,-0.443359,-2.000000,84.503815,22.358778,-103.206108
1.984314,0.666748,-2.000000,107.351143,33.404579,-121.267174
-0.394287,0.714600,1.984314,87.648857,89.473282,-108.305344
-0.455811,-0.257324,1.984314,10.366412,147.206100,-98.114502
0.221680,-0.970459,-0.851807,-60.679390,166.770996,-87.015266
1.349365,-0.667969,-2.000000,-135.503815,146.259537,-67.198471
1.949219,0.178955,-2.000000,-127.755722,90.786263,-95.648857
1.577881,0.910156,-1.523438,-105.717560,49.175571,-116.267174
0.421387,1.116943,1.432861,-80.992363,67.809158,-107.679390
-0.799805,0.599609,1.984314,-72.793892,156.259537,-79.442749
-1.457764,-0.674316,1.984314,-104.656487,248.175568,-39.587788
-1.366455,-1.751465,0.094482,-158.099243,248.175568,4.503817
-0.751465,-2.000000,-2.000000,-191.946564,248.175568,44.755726
-0.265381,-1.412842,-2.000000,-138.854965,248.175568,71.557251
-0.153564,-0.097412,-2.000000,-78.358780,120.030533,61.519085
-0.901123,0.677246,-1.490723,-63.374046,62.022900,37.229008
-2.000000,0.646973,1.490967,-54.656490,65.793892,48.267174
-2.000000,-0.010254,1.984314,-45.854961,-7.328244,87.801529
-2.000000,-0.759766,1.984314,14.305344,-127.091606,131.633591
-2.000000,-1.037354,0.308838,52.137405,-250.137405,149.709930
-0.829590,-0.687012,-2.000000,70.984734,-250.137405,152.198471
1.234131,0.699707,-2.000000,89.114502,-250.137405,84.801529
1.984314,1.984314,-2.000000,99.152672,-250.137405,-102.534348
1.984314,0.159180,0.311035,-110.320610,-250.137405,248.175568
1.984314,1.984314,-1.370361,-150.664124,-250.137405,248.175568
1.984314,0.529297,1.501221,-250.137405,157.427475,-137.229004
1.984314,0.257324,1.984314,-205.221375,248.175568,-250.137405
1.651855,-0.464844,0.350830,-39.519085,248.175568,-250.137405
0.523682,-1.702881,-0.583740,38.595421,248.175568,-192.503815
0.391113,-1.131592,-2.000000,189.198471,248.175568,124.503815
0.976807,1.478516,-2.000000,248.175568,248.175568,248.175568
1.028320,1.984314,-0.175293,248.175568,83.595421,248.175568
0.409180,1.984314,1.984314,161.465652,-78.694656,65.526718
-0.304688,1.356934,1.984314,28.625954,-149.328247,-66.335876
0.114258,-0.540039,1.984314,2.541985,-250.137405,-119.190842
1.733887,-1.234619,-0.927979,26.671755,-250.137405,-166.160309
1.984314,-0.526123,-2.000000,89.145035,-183.404587,-194.870224
1.984314,1.066895,-2.000000,114.954201,-24.374046,-156.633591
1.984314,1.984314,0.001221,86.580154,42.992367,-72.122139
0.914551,1.960693,1.984314,42.519085,184.282440,-37.816795
-0.231445,0.761963,1.984314,-21.885496,248.175568,-44.816795
-0.344238,-0.512695,1.193359,-96.435112,248.175568,-63.007633
0.480713,-1.020996,-2.000000,-130.175568,205.282440,-77.946564
1.440186,-0.498535,-2.000000,-95.320610,71.045799,-88.625954
1.591553,0.677979,-2.000000,-29.229008,21.427481,-90.106873
0.667236,1.285645,0.880615,23.389313,65.793892,-86.259544
-0.655029,0.942139,1.984314,34.236641,170.022903,-68.328247
-1.261963,-0.217529,1.984314,2.977099,246.465652,-43.480915
-0.805908,-1.076660,-0.562988,-46.709923,248.175568,-28.572519
0.266846,-1.002197,-2.000000,-74.931297,192.145035,-26.374046
0.849121,-0.118164,-2.000000,-77.137405,124.427483,-30.435114
0.320313,0.635254,-1.873535,-87.824425,111.297707,-26.839695
-1.014893,0.551270,1.477539,-109.419846,159.740463,-5.396946
-2.000000,-0.354980,1.984314,-150.000000,229.366409,35.290077
-2.000000,-1.475830,1.478027,-162.557251,209.053436,74.419846
-1.932129,-1.941895,-1.667480,-107.000000,102.503815,107.328247
-0.706543,-1.275391,-2.000000,-7.564886,-95.221375,113.732826
0.056641,-0.085937,-2.000000,64.763359,-221.625961,92.114502
-0.446533,0.698486,-0.837646,104.435112,-235.671753,92.526718
-1.446045,0.824951,1.984314,107.320610,-234.396942,128.885498
-1.882813,0.778076,1.984314,81.320610,-250.137405,152.236649
-1.131104,0.893555,1.984314,47.274811,-250.137405,119.129768
0.926270,1.292480,-0.539307,1.977099,-250.137405,2.961832
1.984314,-1.658691,-0.538086,-147.183212,-250.137405,248.175568
1.984314,0.153076,-1.604736,-144.480911,-250.137405,248.175568
1.984314,1.352295,-2.000000,-184.709930,-250.137405,-15.259542
1.984314,1.081299,1.808105,-221.847336,248.175568,-242.137405
1.984314,1.023682,1.984314,-49.351147,248.175568,-250.137405
0.275879,-0.319824,1.984314,31.305344,248.175568,-198.328247
-0.036377,-0.796875,0.407471,87.625954,248.175568,-35.503819
0.729492,-0.060547,-2.000000,94.488548,248.175568,113.442749
1.619385,1.251709,-2.000000,129.534348,131.366409,120.946564
1.705078,1.984314,-1.741211,168.877869,-67.954201,19.412214
0.957031,1.962891,1.703125,139.282440,-119.442749,-51.526718
0.231445,1.250488,1.984314,116.213737,-130.595413,-77.572517
0.178711,0.146484,1.984314,130.473282,-73.282440,-109.854965
0.910400,-0.463623,0.243408,148.290070,-21.977098,-124.916031
1.984314,-0.296143,-2.000000,137.351151,-3.183206,-99.870232
1.984314,0.808838,-2.000000,110.099236,14.297709,-66.061066
1.984314,1.589844,-1.168945,68.282440,97.633591,-58.259541
0.707275,1.456543,1.984314,2.839695,198.496185,-54.496181
-0.581055,0.536621,1.984314,-54.534351,233.320618,-44.793892
-0.782471,-0.614502,1.984314,-75.076332,184.511444,-37.832062
1.669922,0.349854,-2.000000,-42.893131,63.458015,-48.190838
1.037109,1.242676,-0.238037,8.984733,-4.358778,-58.053436
-0.276367,1.226318,1.984314,38.648853,17.694656,-53.000000
-1.145020,0.219482,1.984314,28.694656,109.977097,-32.625954
-0.896973,-0.744629,0.893066,-21.099237,186.595413,-13.145039
0.193359,-1.039795,-2.000000,-71.656487,181.114502,-6.297710
1.082764,-0.300537,-2.000000,-93.893127,98.587784,-10.587787
0.896729,0.685303,-1.857422,-75.381676,12.832061,-15.877863
-0.295410,0.914062,1.908691,-41.770992,-5.526718,-8.969465
-1.495605,0.260498,1.984314,-20.496183,50.198475,14.557252
-1.637451,-0.802979,1.984314,-34.847328,117.106873,39.839695
-0.680176,-1.282471,-1.338379,-56.274811,82.389313,42.229008
0.559814,-0.811035,-2.000000,-47.908398,-26.580153,28.557251
1.083984,0.442871,-2.000000,1.610687,-138.198471,5.335878
0.447510,1.247314,0.742676,49.641220,-162.442749,-7.824428
-0.850586,1.083984,1.984314,53.969467,-73.931297,7.824428
-1.751465,0.051025,1.984314,21.221375,48.198475,51.793892
-1.532471,-0.970703,1.150635,-20.435114,73.343513,90.503815
-0.415283,-1.040527,-2.000000,-121.839691,-57.885498,137.190842
0.913574,-0.219482,-2.000000,-120.122139,-152.351151,162.519089
1.124756,0.833008,-2.000000,-74.564888,-214.618317,179.282440
0.404785,1.089355,1.564697,-165.305344,-226.748093,248.175568
0.081299,1.135498,1.984314,-192.961838,-250.137405,248.175568
0.940918,-0.489258,1.984314,-117.664124,-250.137405,248.175568
1.984314,-1.681152,0.183105,-127.152672,-250.137405,248.175568
1.984314,-0.860840,-2.000000,-109.793892,-250.137405,83.793892
1.984314,0.377197,-2.000000,-127.335876,61.244274,-125.900764
1.984314,1.984314,1.070801,-38.152672,123.076332,-206.748093
0.695312,1.637207,1.984314,27.442749,248.175568,-228.351151
-0.006836,-0.588623,1.553955,19.175573,248.175568,-164.618317
1.305176,-1.259521,-2.000000,50.503819,-2.099237,-133.954193
1.984314,0.760010,-2.000000,144.091599,-250.137405,-104.916031
1.984314,1.984314,1.984314,197.671753,-250.137405,-130.381683
1.135254,0.984863,1.984314,128.145035,-5.091603,-144.068695
1.513916,-0.337402,0.450684,-20.473282,132.465652,-83.335876
1.984314,-0.901855,-2.000000,-62.099236,98.763359,1.396947
1.984314,-0.401123,0.015564,-0.007634,-0.007634,-0.007634
1.984314,0.758545,-0.329346,143.534348,108.870232,16.793894
0.510742,1.396729,1.984314,24.755726,98.893127,-57.870228
1.450928,-0.467529,-2.000000,-31.801527,21.045801,-35.244274
1.984314,0.055908,-2.000000,3.122137,-6.862596,-41.442749
1.984314,0.911377,-2.000000,52.557251,-13.984733,-69.404579
1.577881,1.485107,-0.072754,96.000000,7.961832,-67.030533
0.464600,1.700195,1.984314,100.893127,87.900764,-57.664124
-0.502930,1.229248,1.984314,69.000000,136.885498,-51.297710
-0.724854,0.379639,1.984314,-1.923664,139.114502,-44.160305
-0.249268,-0.330322,-0.100098,-71.183205,96.671753,-52.099236
0.653320,-0.790527,-2.000000,-106.717560,39.900764,-56.900764
1.403809,-0.557129,-2.000000,-92.312981,1.129771,-45.198475
1.514404,0.176025,-2.000000,-56.893131,38.625954,-23.480917
0.763672,0.835693,-0.045166,-15.832061,117.335876,-2.465649
-0.450439,0.932373,1.984314,1.236641,196.786255,17.122137
-1.416504,0.363281,1.984314,-9.129771,224.328247,27.770992
-1.557129,-0.615479,1.984314,-25.809160,174.114502,23.534351
-0.812744,-1.253418,-0.534668,-28.763359,62.664124,1.938931
0.344727,-1.348389,-2.000000,1.778626,-44.145039,-24.725191
1.132080,-0.571289,-2.000000,41.206108,-88.106873,-38.679390
0.963623,0.495605,-2.000000,61.038166,-51.236641,-31.030535
-0.021729,0.960937,1.167725,40.870228,48.412212,-4.236641
-1.129395,0.640137,1.984314,-9.908397,91.908394,15.381680
-1.518799,-0.290283,1.984314,-48.251907,55.870228,20.832062
-0.919434,-0.973633,0.496338,-48.916031,-54.458015,7.625954
0.261230,-1.082031,-2.000000,-19.129770,-149.900757,-14.480916
1.203613,-0.450684,-2.000000,6.557252,-165.664124,-19.297710
1.203369,0.596924,-2.000000,5.259542,-111.694656,-1.251908
0.301025,1.191650,0.465088,-5.893130,-12.213740,33.473282
-1.039795,1.223633,1.984314,-29.580153,8.694656,74.175575
-1.655762,0.670654,1.984314,-49.984734,-63.618320,165.709930
1.046875,-0.073730,-2.000000,-163.992371,-189.641220,248.175568
1.984314,1.191162,-2.000000,-193.000000,-250.137405,248.175568
1.984314,0.872070,-0.720703,-139.870224,-250.137405,248.175568
1.984314,1.281006,1.984314,-68.610687,-250.137405,248.175568
1.984314,0.676270,1.984314,-18.984734,-156.679382,85.328247
1.984314,0.311768,1.905273,-49.145039,248.175568,-73.458015
1.984314,-1.017090,-2.000000,-120.473282,154.389313,-29.709923
1.984314,-0.940674,-2.000000,-155.610687,179.160309,-159.580154
1.555664,0.328613,-1.420166,-45.778625,228.969467,-181.229004
-0.047119,1.912354,1.984314,36.832062,85.648857,-69.297707
-0.897461,0.516357,1.984314,71.900764,-63.954197,-1.114504
0.323975,-0.686035,1.984314,93.916031,-112.801529,24.732824
1.984314,-0.667969,-1.811035,73.152672,-175.076340,-59.045803
1.984314,0.281982,-2.000000,35.564884,-214.816788,-134.083969
1.984314,1.180176,-0.733154,35.167938,-195.870224,-162.564880
1.614990,1.039795,1.984314,60.595421,-81.740456,-143.061066
0.589355,0.363525,1.984314,82.297707,92.229004,-80.717560
0.574707,-0.291748,1.776855,78.106873,208.503815,-21.778625
1.215820,-0.593994,-1.678223,50.404579,218.595413,11.404580
1.982178,-0.254883,-2.000000,34.564884,130.030533,9.885496
1.984314,0.762207,-2.000000,45.961834,20.068703,-34.625954
1.931885,1.514893,-1.643066,69.152672,-78.641220,-74.030533
1.034180,1.768066,1.421875,74.916031,-51.244274,-84.618324
-0.001709,1.396973,1.984314,74.122139,32.221375,-72.099236
-0.549316,0.490723,1.984314,54.183205,110.557251,-53.358780
-0.424561,-0.300781,1.485840,13.305344,164.213745,-44.717556
0.261963,-0.764893,-1.534424,-27.526718,164.778625,-46.824429
1.080811,-0.679932,-2.000000,-51.854961,115.740456,-52.145039
1.471924,-0.038086,-2.000000,-48.809162,55.595421,-52.541985
1.172363,0.719727,-1.935547,-24.557251,24.000000,-40.641220
0.259766,1.158447,1.114014,13.106871,35.244274,-22.030535
-0.760010,1.014160,1.984314,29.793894,99.244278,-2.068702
-1.326660,0.211182,1.984314,5.572519,143.656494,4.152672
-1.143066,-0.710937,1.619873,-38.526718,150.923660,0.511450
-0.365967,-1.278076,-1.409668,-66.137405,107.603050,-8.778625
0.540283,-1.182861,-2.000000,-62.511452,33.259541,-17.152672
1.024170,-0.448730,-2.000000,-40.603054,-29.732824,-21.274809
0.729736,0.315430,-1.837158,-23.816793,-42.786259,-11.595420
-0.133057,0.676514,1.208984,2.572519,-17.045801,11.374045
-1.087646,0.642334,1.984314,22.519083,20.465649,36.282444
-1.670654,0.153564,1.984314,9.244275,49.312977,53.038166
-1.624512,-0.464355,1.984314,-35.763359,52.221375,57.000000
-1.046143,-1.070068,-0.026367,-61.984734,3.740458,43.977100
-0.176270,-1.134521,-2.000000,-46.389313,-75.404579,38.687023
0.718506,-0.551758,-2.000000,-10.770992,-180.885498,43.381680
1.022949,0.205566,-2.000000,-43.679390,-250.137405,30.969465
0.979248,0.926025,-1.208496,-71.000000,-250.137405,166.015274
1.268555,1.676270,1.489746,-125.328247,-250.137405,248.175568
1.566895,1.457520,1.984314,-53.534351,-250.137405,248.175568
1.984314,0.971436,1.984314,2.633588,-250.137405,212.763351
1.984314,0.177002,1.984314,-70.396950,-69.068703,115.870232
1.984314,-0.179932,-0.278076,-117.343513,202.083969,-27.908398
1.984314,-0.291748,-2.000000,-83.366409,57.221375,-35.625954
1.984314,0.339600,-2.000000,-70.129768,-25.740458,-70.854965
1.984314,0.924561,-2.000000,-18.290077,30.709923,-141.862595
0.508545,1.627197,1.984314,47.664124,152.916031,-81.145035
-0.600586,1.292725,1.984314,68.366409,111.152672,7.839694
0.049805,-0.167969,1.984314,53.625954,-25.458015,3.725191
1.584961,-0.884521,-0.446289,27.534351,-124.664124,-54.839695
1.984314,-0.609863,-2.000000,-1.603053,-166.679382,-95.862595
1.984314,0.197510,-2.000000,7.511450,-130.824432,-72.412216
1.984314,0.928467,-0.260254,69.702293,-33.450382,-16.389313
1.984314,1.526367,1.984314,102.122139,110.954201,-16.290077
0.788086,0.678223,1.984314,61.603054,235.992371,-51.282444
-0.218018,0.051025,1.984314,64.687019,207.183212,-9.160305
-0.200439,-0.264648,0.994629,81.030533,117.526718,16.954199
0.676758,-0.211670,-1.769287,54.519085,-4.022901,-7.267176
1.672852,0.047852,-2.000000,19.916031,-81.183205,-58.687023
1.984314,0.516357,-2.000000,4.213740,-87.732826,-78.183205
1.966553,1.061768,-2.000000,17.824427,-50.145039,-61.389313
1.225342,1.407227,0.488281,35.358780,30.961832,-34.778625
0.141846,1.409180,1.984314,26.175573,131.793900,-8.679389
-0.722900,0.864258,1.984314,-4.091603,168.404587,0.251908
-1.059326,-0.062988,1.984314,-43.320610,155.503815,0.053435
-0.764160,-0.854736,0.501953,-71.442749,97.450378,1.083969
0.039551,-1.165283,-2.000000,-68.885498,19.832062,6.114504
0.911133,-0.802490,-2.000000,-37.832062,-38.534351,11.328244
1.334473,0.020020,-2.000000,-0.129771,-47.549618,16.198473
1.074463,0.793457,-1.285400,24.282442,-3.198473,23.167938
0.221680,1.094238,1.733154,27.267176,67.366409,29.954199
-0.755859,0.842529,1.984314,12.106871,120.274811,31.427481
-0.166992,-1.349854,-1.689209,-23.977098,121.732826,24.709923
0.686035,-1.046875,-2.000000,-42.389313,60.885498,12.595420
1.165283,-0.318359,-2.000000,-32.312977,-23.687023,-0.541985
1.032471,0.512451,-1.697510,4.244275,-90.137405,-9.679389
0.355469,1.039063,1.046143,39.687023,-114.595421,-13.809160
-0.525146,1.076416,1.984314,53.282444,-96.229004,-10.557252
-1.179443,0.526367,1.984314,42.160305,-41.129772,-1.931298
-1.253174,-0.324463,1.984314,17.832062,17.137405,10.152672
-0.779785,-1.055420,0.335693,-18.702290,39.465649,12.229008
0.111084,-1.264404,-2.000000,-27.786259,17.946566,24.404581
0.818848,-0.684082,-2.000000,-42.557251,-108.694656,12.755725
1.362549,0.197754,-2.000000,-3.450382,-185.816788,76.648857
1.567627,0.970459,-1.442627,37.473282,-220.885498,157.381683
1.429932,1.641602,0.918945,10.297709,-239.122131,174.221375
1.140625,1.781738,1.984314,-15.664123,-250.137405,136.328247
1.513672,0.687744,1.984314,17.702290,-211.885498,231.320618
1.984314,1.117188,1.984314,12.488549,83.969467,100.000000
1.984314,-0.347412,0.258545,-113.305344,248.175568,-54.587788
1.984314,-0.261719,-1.854736,-77.832062,142.129776,-22.465649
1.984314,-0.890381,-2.000000,-133.458008,47.541985,-34.877861
1.984314,-0.573730,-2.000000,-76.770996,63.671757,-110.145035
1.589600,1.273438,-1.317871,43.038166,60.007633,-70.343513
0.748779,1.862061,1.691162,59.862595,-101.961830,14.412213
0.409912,1.432861,1.984314,99.923668,-161.473282,18.114504
0.600342,0.462646,1.984314,55.824429,-136.396942,-28.419847
1.551025,-0.282715,0.213867,-36.435116,-58.145039,-62.183205
1.984314,-0.644287,-2.000000,-103.160309,1.274809,-84.175575
1.984314,-0.488525,-2.000000,-79.351143,29.061069,-77.809158
1.984314,0.197510,-2.000000,-12.923664,33.847328,-42.984734
1.984314,0.861084,-0.428223,38.335876,39.931297,-7.496183
1.259277,1.308350,1.951904,59.832062,50.160305,4.969466
0.357422,1.084473,1.984314,64.374046,48.145039,-4.427481
-0.095459,0.500977,1.984314,63.351147,64.923668,-16.786259
-0.049805,-0.075928,1.984314,60.748093,73.480919,-19.450382
0.437744,-0.459961,-0.352051,45.610687,72.290077,-25.351145
1.157471,-0.538818,-2.000000,29.534351,64.664124,-27.053434
1.768066,-0.058594,-2.000000,21.450382,38.053436,-31.083969
1.925781,0.759033,-2.000000,27.809160,-8.458015,-43.778625
1.506836,1.448975,-1.671631,43.900764,-35.778625,-49.404579
0.643555,1.706299,1.162842,58.824429,-23.557251,-42.702290
-0.286377,1.413086,1.984314,51.587788,45.236641,-27.480917
-0.879150,0.601562,1.984314,18.618320,92.068703,-18.335878
-0.896484,-0.395020,1.984314,-20.221375,109.274811,-10.740458
-0.330322,-1.068604,-0.129395,-44.129772,87.320610,-6.419847
0.536133,-1.179199,-2.000000,-46.679390,36.648853,-7.633588
1.270752,-0.649414,-2.000000,-32.366413,-20.778625,-10.687023
1.509033,0.249023,-2.000000,-3.564885,-56.450382,-13.687023
1.149170,1.049805,-0.966553,24.572519,-53.221375,-14.305344
0.332520,1.378906,1.774902,41.732826,-12.549619,-11.137404
-0.553955,1.107910,1.984314,40.259541,41.129772,-7.030534
-1.112793,0.336914,1.984314,9.335877,96.442749,-3.175573
-1.119873,-0.625488,1.984314,-19.068703,105.381676,-6.671756
-0.616455,-1.274902,0.448486,-36.229008,75.412216,-13.145039
0.183838,-1.427979,-2.000000,-39.656490,16.893129,-18.641222
0.927002,-0.930176,-2.000000,-22.442749,-42.862595,-24.076336
1.254883,0.007813,-2.000000,7.068702,-74.534348,-27.732824
1.037842,0.844727,-1.390137,37.251907,-79.732826,-26.450382
0.359131,1.458740,0.813721,-32.564884,-41.267174,33.458015
-0.322021,1.389160,1.984314,-59.412212,37.824429,51.954197
-1.100586,0.490234,1.984314,-59.488548,87.312981,49.305344
-1.568115,-0.475342,1.984314,-95.786263,70.961830,66.923668
-1.203857,-1.211426,1.738037,-80.809158,5.656488,124.358780
-0.099121,-1.506836,-0.991699,-90.320610,-130.763351,155.793900
1.315186,-1.095703,-2.000000,-92.480919,-250.137405,171.893127
1.984314,0.042725,-2.000000,-77.870232,-250.137405,215.984726
1.984314,0.540039,-1.124268,-22.854961,-230.122131,248.175568
1.984314,1.231934,1.984314,-44.396946,20.465649,248.175568
1.984314,1.373291,1.984314,-63.320610,248.175568,20.656488
1.984314,-0.205811,1.984314,-63.748093,246.725189,7.946565
1.984314,-0.623291,-1.180908,-62.366413,90.580154,-31.977098
1.984314,-0.456055,-2.000000,-69.145035,-80.709923,-77.740456
1.984314,0.526367,-2.000000,-0.992366,0.076336,-92.061066
1.513672,1.789063,-0.067383,54.725189,30.068703,-49.877861
0.589844,1.129639,1.984314,61.297710,-11.259542,6.488550
0.227051,0.434326,1.984314,69.847328,-70.809158,-35.656490
0.690674,-0.607422,1.984314,26.992367,-152.351151,-105.229004
1.898682,-1.359863,-1.208740,5.534351,-244.030533,-170.335876
1.984314,-0.958252,-2.000000,8.732824,-250.137405,-207.961838
1.984314,0.204590,-2.000000,26.732824,-210.045807,-188.503815
1.984314,0.927002,0.710937,53.595421,-19.022902,-137.618317
0.662598,-0.590088,1.733887,44.862595,160.465652,-71.618324
1.190186,-0.826660,-1.190918,29.030535,230.816788,-22.778625
1.757324,-0.823730,-2.000000,25.389313,215.709930,1.374046
1.984314,-0.240723,-2.000000,33.519085,145.236649,6.824428
1.984314,0.666992,-2.000000,64.412216,39.366413,-13.106871
1.576172,1.522461,-1.042236,100.893127,-58.977100,-46.656490
0.828613,1.925293,1.345947,113.717560,-81.396950,-68.786263
-0.028076,1.686035,1.984314,98.229004,-29.519083,-64.122139
-0.674561,0.924316,1.984314,73.725189,33.908398,-39.549618
-0.877197,-0.034668,1.984314,73.030533,96.854965,-30.244274
-0.746582,-0.729248,1.034424,40.992367,146.404587,-5.488550
-0.161621,-0.922119,-1.255859,-15.335877,156.763351,27.557251
0.598145,-0.728271,-2.000000,-46.648853,120.633591,29.580153
1.203125,-0.291504,-2.000000,-58.190838,52.122139,14.412213
1.459717,0.229980,-2.000000,-52.679390,-11.351145,3.923664
1.325928,0.750977,-1.901367,-37.106869,-48.564884,2.801527
0.817627,1.094727,0.283203,-10.145039,-54.007633,5.068702
0.090332,1.155029,1.984314,20.015266,-29.625954,8.610687
-0.633057,0.862061,1.984314,39.503819,12.717557,13.030535
-1.102539,0.274170,1.984314,41.312977,55.106869,18.580153
-1.159668,-0.396240,1.984314,16.656488,98.053436,23.206106
-0.815674,-0.922852,1.078369,-13.770992,90.541985,20.015266
-0.134033,-1.159912,-1.096191,-39.251907,51.381680,12.213740
0.681152,-1.035400,-2.000000,-49.572517,-7.297710,0.580153
1.319824,-0.603516,-2.000000,-48.687023,-49.244274,-11.816793
1.556641,0.017090,-2.000000,-40.641220,-71.480919,-14.106871
1.329590,0.652344,-2.000000,-31.641222,-72.534348,-10.862596
0.688721,1.006836,-0.150391,-19.923664,-63.251907,2.625954
-0.052979,1.170654,1.939941,9.511451,-60.473282,11.511451
-0.905518,1.050781,1.984314,9.641221,-78.694656,41.694656
-1.335449,0.763672,1.984314,-17.870230,-29.748091,148.816788
-1.047607,0.423828,1.984314,-60.312977,23.839695,215.442749
-0.627441,-0.462646,1.984314,-50.274811,34.564884,197.328247
-0.038818,-1.072021,-0.255127,-202.717560,-52.732826,222.778625
1.364990,-1.371582,-1.345459,-163.152664,-149.877869,228.152664
1.984314,-1.424316,-2.000000,-31.969465,-151.977097,197.282440
1.984314,0.252686,-1.412354,-39.374046,31.145039,71.587784
1.984314,0.413330,-2.000000,-119.702293,117.519081,-25.374046
1.984314,1.011475,-1.296387,0.458015,-93.000000,-37.450382
1.984314,1.475342,-0.024902,-9.564885,-71.938934,-63.091602
0.692383,1.426270,1.984314,33.465649,23.671755,-76.488548
-0.576660,0.927002,1.984314,41.099236,104.167938,-36.335876
-0.358154,-0.253906,1.984314,47.786259,21.496183,10.427481
1.060059,-0.764648,-0.131592,23.007633,-114.702293,-40.954197
1.984314,-0.904053,-2.000000,-34.030533,-209.725189,-110.931297
1.984314,-0.399170,-2.000000,-74.358780,-225.229004,-130.801529
1.984314,-0.020752,-1.856934,-40.328243,-183.251907,-127.412216
1.984314,0.589600,0.648193,30.114504,-107.770996,-100.801529
1.600098,0.855469,1.984314,51.755726,31.511450,-61.389313
0.833984,0.709717,1.984314,41.664124,153.740463,-36.580154
0.296631,0.030273,1.984314,27.000000,213.030533,-21.679390
0.109863,-0.532227,1.984314,42.755726,202.160309,-22.083969
0.292969,-0.855469,0.069580,68.709923,140.473282,-19.389313
0.896973,-0.718506,-2.000000,87.366409,53.442749,-21.625954
1.621826,-0.152832,-2.000000,91.763359,-22.656488,-46.106869
1.984314,0.515869,-2.000000,76.251907,-34.480915,-75.748093
1.885010,1.082764,-2.000000,63.618320,-34.152672,-80.549622
1.338623,1.514160,-0.853271,59.488548,-4.549618,-63.396946
0.478760,1.691162,1.378662,51.931297,51.473282,-39.557251
-0.423828,1.469238,1.984314,30.229008,107.534348,-14.320611
-1.032715,0.831543,1.984314,-8.763359,149.709930,7.954198
-1.186035,-0.012939,1.984314,-44.465649,141.083969,18.206106
-0.865479,-0.771240,0.892334,-71.908394,104.053436,21.778625
-0.162598,-1.163574,-1.399902,-73.274811,49.816795,18.458015
0.634766,-1.070313,-2.000000,-50.847328,-3.839695,10.404580
1.179443,-0.437988,-2.000000,-20.854961,-40.770992,0.725191
1.287598,0.388428,-2.000000,9.503817,-51.061069,-5.045802
0.938477,1.023193,-1.059570,29.984734,-36.320610,-6.435114
0.269287,1.267822,1.331787,39.778625,-4.427481,-4.145038
-0.462646,1.077881,1.984314,42.129772,30.038168,-4.244275
-0.971924,0.484131,1.984314,24.534351,62.229008,-9.473283
-1.082520,-0.359131,1.984314,1.839695,46.328243,-16.763359
-0.712402,-1.021484,1.190674,-17.770992,-6.633588,-22.274809
0.063965,-1.124023,-1.206299,-19.740458,-85.083969,-34.877861
0.922852,-0.851562,-2.000000,-19.381680,-139.541992,-48.419846
1.562988,-0.276123,-2.000000,-14.603053,-161.091599,-48.000000
1.794434,0.396973,-2.000000,-12.045801,-145.091599,-44.320610
1.465332,0.878174,-1.227295,-24.022902,-88.557251,-18.435114
0.625000,0.957764,0.902100,-81.015266,-10.061069,78.900764
0.044678,1.283203,1.984314,-124.885498,76.984734,135.236649
-0.399902,-1.384033,-0.001709,-86.312981,105.061066,144.450378
0.190430,-1.669922,-2.000000,-104.511452,74.259544,155.725189
0.874268,-1.442383,-2.000000,-92.931297,12.992367,164.526718
1.495850,-0.886719,-2.000000,-93.175575,-113.816795,175.137405
1.984314,-0.078613,-2.000000,-128.992371,-250.137405,197.427475
1.984314,0.253418,-0.197021,5.305344,-250.137405,212.519089
1.984314,1.928223,1.984314,26.511450,-189.900757,148.870224
1.984314,1.330811,1.984314,-62.015266,235.167938,-60.137405
1.435303,0.781006,1.984314,23.236641,44.458015,-20.274809
1.191650,-0.213135,1.129883,3.786260,74.297707,-47.442749
1.403564,-0.452393,-1.156982,-14.793893,58.404579,-76.045799
1.814697,-0.041016,-2.000000,-11.824428,38.610687,-69.992363
1.984314,0.767822,-2.000000,28.442749,-112.129768,-38.038166
1.984314,1.703613,-0.711426,74.442749,-231.931305,-45.519085
1.628174,1.691650,1.984314,73.526718,-250.137405,-96.931297
0.979736,0.512451,1.984314,15.916031,-174.862595,-107.351143
1.205811,-0.578857,1.984314,-49.572517,-67.396950,-91.656487
1.789551,-1.279785,0.010742,-109.832062,118.923668,-127.076332
1.984314,-1.636963,-2.000000,-75.061066,167.748093,-103.412216
1.984314,-1.160156,-2.000000,-9.396947,173.053436,-64.114502
1.984314,-0.245850,-2.000000,61.618320,111.503815,-39.511452
1.984314,0.656982,-2.000000,128.442749,53.381680,-33.442749
1.482666,1.578369,0.125000,165.465652,11.419847,-46.458015
0.577881,1.984314,1.984314,160.564880,-6.526718,-75.740456
-0.335205,1.732666,1.984314,101.870232,53.045803,-85.198471
-0.888184,0.770264,1.984314,24.541985,104.916031,-57.961834
-0.886719,-0.230225,1.943115,-32.725189,132.229004,-24.664122
-0.415527,-0.974854,-0.213623,-60.870228,136.709930,-8.717557
0.303955,-1.233643,-2.000000,-63.992367,106.694656,-2.351145
0.969971,-0.920898,-2.000000,-52.358780,58.251907,1.419847
1.334961,-0.250244,-2.000000,-27.053434,-8.580153,0.671756
1.280273,0.489258,-2.000000,-2.335878,-35.297710,3.854962
0.802002,1.034180,-0.350586,20.725191,-35.656490,8.702291
0.054199,1.220215,1.958496,38.778625,-13.213740,12.809160
-0.694092,0.982178,1.984314,44.305344,20.091602,14.610687
-1.170410,0.350342,1.984314,33.755726,54.259541,13.145039
-1.255371,-0.495850,1.984314,11.312977,81.832062,9.748092
-0.948730,-1.173340,1.303467,-15.000000,88.488548,6.618320
-0.354736,-1.429443,-0.846191,-30.916031,66.335876,-0.160305
0.343018,-1.363770,-2.000000,-36.992367,21.381680,-10.854961
0.929932,-0.907227,-2.000000,-27.167938,-55.778625,-23.045801
1.250244,-0.171143,-2.000000,-2.862595,-106.473282,-30.534351
1.193359,0.555420,-1.783691,20.320610,-119.702293,-37.977100
0.716064,1.037598,0.276611,29.580153,-91.129768,-37.259541
-0.027100,1.161865,1.984314,21.916031,-47.740459,-22.251909
-0.796631,0.909912,1.984314,-4.984733,3.916031,5.106870
-1.489502,0.616211,1.984314,-36.641220,14.770992,-10.343512
-2.000000,-0.202393,1.984314,-49.656490,-3.908397,81.954201
-1.515869,-0.478027,1.984314,-56.297710,-35.045803,229.702286
-0.470459,-0.519775,0.191895,-71.984734,-121.435112,248.175568
0.797363,-0.439941,-2.000000,-82.755722,-243.519089,248.061066
1.984314,-0.978271,-2.000000,-12.221375,-250.137405,248.175568
1.984314,1.360596,-0.156250,-14.961832,125.099236,89.969467
1.984314,0.097412,-2.000000,-175.931305,213.572525,-101.854965
1.984314,1.428467,-1.314697,46.870228,-26.106871,-149.832062
1.984314,1.898926,-1.920410,-73.038170,-99.809158,-80.244278
0.157227,0.589355,1.984314,-53.717556,122.480919,-103.595421
-1.446289,0.408691,1.984314,65.778625,248.175568,-53.122139
-0.895508,0.549072,1.984314,42.946564,9.648855,51.236641
1.205811,-0.587158,-0.241455,46.206108,-238.358780,66.244278
1.984314,-0.392578,-2.000000,41.068703,-250.137405,-64.648857
1.984314,0.234375,-2.000000,22.511450,-250.137405,-121.664124
1.984314,0.983154,-0.146729,24.137405,-155.465652,-149.000000
1.759033,0.952881,1.984314,12.526717,-60.000000,-143.358780
0.860107,0.327393,1.984314,-15.854961,63.740459,-89.396950
0.742920,-0.237061,1.984314,-26.572519,158.236649,-42.755726
1.058838,-0.650146,-0.040771,-7.633588,175.412216,-35.435116
1.363770,-0.893555,-2.000000,10.229008,155.343506,-41.862595
1.653809,-0.531006,-2.000000,36.916031,88.038170,-35.000000
1.855469,0.291260,-2.000000,76.381676,35.916031,-41.488548
1.805908,1.183350,-2.000000,99.305344,3.770992,-48.702290
1.313232,1.685059,-1.005371,90.053436,54.877861,-58.687023
0.484375,1.702881,1.223389,51.984734,94.641220,-51.709923
-0.311523,1.311523,1.984314,22.633587,120.816795,-32.297710
-0.827148,0.633057,1.984314,4.503817,140.045807,-21.687023
-0.974609,-0.201904,1.984314,-5.282443,141.114502,-25.396946
-0.739990,-0.912842,1.611084,-3.801527,116.106873,-37.755726
-0.199463,-1.274658,-0.824707,2.824427,75.198471,-47.213741
0.507324,-1.226074,-2.000000,13.335877,39.778625,-51.679390
1.060303,-0.727539,-2.000000,26.114504,25.893129,-49.961834
1.232666,-0.042236,-2.000000,40.137405,34.267174,-41.610687
-1.066895,0.554443,1.984314,48.106869,79.229004,-29.503817
-1.567871,-0.369873,1.984314,34.839695,134.572525,-13.587787
-1.639404,-1.188721,1.984314,16.809160,187.725189,7.564886
-1.263184,-1.560547,-0.007324,9.870229,187.870224,25.480917
-0.576904,-1.563232,-2.000000,-3.442748,141.541992,26.938931
0.008789,-1.171143,-2.000000,-19.175573,83.213737,24.587786
0.286133,-0.420166,-2.000000,-12.114504,13.221375,29.190840
0.202148,0.462158,-2.000000,10.328244,-64.305344,36.656490
-0.179932,1.162354,-0.430664,40.305344,-149.106873,36.122139
-0.705566,1.434326,1.848145,64.335876,-225.938934,47.015266
-1.159424,1.670166,1.984314,-110.908394,-240.091599,168.969467
-1.157715,0.953613,1.984314,-181.061066,-194.702286,238.496185
-0.896484,-0.075684,1.984314,-166.946564,-211.656494,248.175568
0.990723,-1.496582,1.984314,-76.770996,-250.137405,248.175568
1.984314,-1.764893,1.984314,20.274809,-250.137405,248.175568
1.984314,0.653320,1.360840,19.106871,122.374046,-20.961832
1.984314,-0.253662,-2.000000,-119.572517,125.587784,-128.274811
1.984314,1.172363,-2.000000,-141.969467,-86.290077,-89.893127
1.182617,-0.187256,-0.151611,-166.122131,150.381683,-204.145035
-1.238525,0.624512,1.984314,32.229008,248.175568,-152.778625
-1.698730,1.382813,1.984314,61.267174,5.610687,44.778625
0.297607,-0.846436,1.710205,75.908394,-150.305344,81.297707
1.984314,-0.894531,-2.000000,75.374046,-250.137405,-36.641220
1.984314,-0.175537,-2.000000,39.053436,-250.137405,-112.587784
1.984314,0.890869,-1.699707,44.198475,-250.137405,-192.450378
1.984314,1.193848,1.984314,66.381676,-250.137405,-183.114502
1.497559,0.980469,1.984314,57.198475,-75.458015,-136.625961
0.845703,0.104492,1.984314,26.297710,115.458015,-93.793892
1.459229,-0.515381,0.381592,8.656488,230.244278,-43.488548
1.984314,-0.938477,-2.000000,-3.137405,248.175568,-5.503817
1.984314,-0.792480,-2.000000,-11.664123,173.435120,18.419847
1.984314,0.210205,-2.000000,45.381680,62.465649,-5.145038
1.984314,1.007568,-2.000000,91.656487,22.687023,-64.900764
1.466553,1.125244,-0.253906,137.412216,-1.938931,-96.770996
0.571289,1.162598,1.805908,206.282440,-20.580153,-122.534348
-0.151855,1.190430,1.984314,181.145035,43.068703,-76.854965
-0.486084,0.987549,1.984314,143.419846,120.061066,-53.175571
-0.488770,0.484863,1.984314,88.717560,155.290070,-55.244274
-0.183350,-0.102783,0.395752,22.633587,164.458008,-60.320610
0.333984,-0.483154,-1.728027,-41.236641,152.992371,-62.450382
0.915527,-0.592529,-2.000000,-79.969467,94.992363,-65.755722
1.364014,-0.258057,-2.000000,-85.206108,56.404579,-65.404579
1.515869,0.270752,-2.000000,-74.534348,29.473282,-60.022900
1.316895,0.779053,-2.000000,-58.534351,26.412214,-48.900764
0.786621,1.062256,-0.369141,-49.465649,48.870228,-32.824429
0.026611,1.077881,1.653076,-46.793892,94.961830,-15.442748
-0.766602,0.833252,1.984314,-46.748093,146.496185,1.267176
-1.359375,0.303955,1.984314,-54.160305,180.931305,21.045801
-1.564209,-0.351074,1.984314,-69.053436,186.251907,37.732826
-1.362549,-0.951904,1.574463,-81.183205,157.862595,44.748093
-0.810547,-1.310547,-0.451904,-86.061066,83.755722,34.694656
-0.095215,-1.414551,-2.000000,-69.137405,21.167938,19.526718
0.527588,-1.179443,-2.000000,-43.343510,-24.908398,10.007633
0.906982,-0.643311,-2.000000,-1.022901,-63.633587,8.236641
1.043945,0.104980,-2.000000,50.389313,-99.519081,4.564886
0.893555,0.793457,-1.453369,83.198471,-110.183205,-1.473282
0.425781,1.194824,0.495850,84.664124,-82.480919,-1.610687
-0.255859,1.261963,1.984314,49.190838,-36.167938,9.396947
-0.998535,1.013428,1.984314,-8.106871,15.671756,32.732826
-1.520508,0.442139,1.984314,-55.267174,34.053436,59.564884
-1.572754,-0.136475,1.984314,-81.694656,-31.106871,80.091606
-1.112305,-0.548340,1.594971,-69.954201,-117.030533,74.389313
-0.457275,-0.780762,-0.194336,-72.000000,-167.328247,50.893131
0.181885,-1.072998,-1.783936,-118.534348,-250.137405,62.335876
1.152588,-1.183105,-2.000000,31.519083,-250.137405,123.816795
1.984314,-0.559570,-2.000000,140.213745,-250.137405,209.839691
1.984314,0.939453,-2.000000,-83.992363,-250.137405,248.175568
1.984314,1.984314,0.208252,24.206106,-250.137405,248.175568
1.984314,1.713379,1.071289,50.106869,40.175571,190.106873
1.984314,1.396729,1.984314,-81.633591,248.175568,44.244274
1.959717,0.447021,1.984314,-18.801527,228.603058,1.343511
1.420410,-0.250000,1.984314,-33.839695,102.091606,-60.694656
1.524170,-0.989258,-0.218994,-38.122139,66.305344,-138.419846
1.878906,-0.730957,-2.000000,-2.725191,64.068703,-166.893127
1.984314,0.279053,-2.000000,56.167938,-64.045799,-114.229004
1.890137,1.127930,-1.240967,119.809158,-172.969467,-76.938934
1.373047,1.443604,1.984314,119.923668,-203.938934,-77.992363
0.679932,0.606201,1.984314,29.282442,-162.442749,-82.312981
0.829346,-0.483643,1.984314,-67.183205,-61.847328,-53.297710
1.222900,-1.091064,0.375977,-78.488548,54.870228,-34.961834
1.984314,0.562256,-2.000000,-34.335876,107.061066,-39.099236
1.984314,1.258301,0.041260,14.458015,118.969467,-45.862595
0.951660,1.578613,1.984314,36.526718,108.564888,-57.175571
-0.144775,1.218262,1.984314,44.893131,72.404579,-40.564884
-0.613525,0.420898,1.984314,48.679390,23.083969,-14.755725
-0.409668,-0.223389,1.984314,44.267174,19.900763,-8.946565
0.135010,-0.679932,0.235107,24.458015,75.007637,-16.923664
0.795654,-0.830322,-1.926270,9.832061,102.893127,-20.656488
1.435059,-0.625000,-2.000000,2.961832,98.832062,-22.000000
1.806885,-0.011719,-2.000000,-1.114504,72.610687,-25.740458
1.804199,0.714111,-2.000000,5.251908,15.328244,-33.236641
1.426025,1.266357,-1.663086,15.244275,-14.480916,-29.969465
0.777344,1.556641,0.635498,29.038168,-27.015266,-20.656488
0.044189,1.493164,1.984314,42.801525,-15.916031,-10.312977
-0.568359,1.076172,1.984314,43.450382,11.045801,-1.290076
-0.889893,0.417725,1.984314,25.977098,51.564884,5.923664
-0.858643,-0.316650,1.984314,-4.450382,94.938934,14.580153
-0.506836,-0.938477,0.610352,-27.580153,118.839691,22.992367
0.092529,-1.141113,-1.527344,-36.992367,106.824425,23.450382
0.777344,-0.946533,-2.000000,-41.664124,61.236641,14.000000
1.334473,-0.377197,-2.000000,-41.839695,-21.877863,-4.824428
1.564941,0.245361,-2.000000,-33.977100,-82.870232,-16.786259
1.479248,0.859863,-1.827637,-14.442748,-112.541985,-19.488550
1.076904,1.196289,0.320801,15.465649,-105.473282,-24.083969
0.454102,1.243408,1.984314,37.603054,-70.122139,-26.984734
-0.187988,0.961914,1.984314,46.404579,-13.312977,-28.282442
-0.594727,0.385254,1.984314,43.694656,45.503819,-28.557251
-0.614990,-0.297363,1.984314,27.221375,81.488548,-27.076336
-0.220459,-0.817627,0.977295,5.152672,87.511452,-27.083969
0.485352,-1.017578,-0.931396,-7.969466,74.557251,-34.732826
1.251953,-0.888672,-2.000000,-9.824428,24.015266,-52.801525
1.858154,-0.419678,-2.000000,-4.160306,-14.259542,-67.106873
1.920166,-0.028076,-2.000000,-12.000000,-35.038166,-52.854961
1.669434,0.687500,-2.000000,-53.885498,18.786259,12.969465
0.865234,0.825684,-0.327637,4.526718,118.740456,41.977100
-0.306641,0.797119,1.523193,23.442749,248.175568,75.381676
-1.602295,0.814941,1.984314,-14.053435,248.175568,123.389313
-2.000000,0.992920,1.984314,-29.656488,248.175568,181.702286
-2.000000,0.885986,1.984314,-52.175571,87.908394,227.908401
-2.000000,-0.080078,1.175781,-117.671753,-250.137405,248.175568
-0.321289,-1.889893,1.677246,-180.740463,-250.137405,248.175568
1.984314,-1.218018,1.984314,40.832062,-250.137405,248.175568
1.984314,-1.357422,0.204346,-115.297707,-0.229008,-135.778625
1.984314,-1.418457,-2.000000,-125.236641,-8.450381,-153.442749
1.984314,-0.420654,-2.000000,-61.625954,-72.129768,-171.702286
1.984314,0.299561,-2.000000,-19.541985,118.412216,-234.847336
0.256104,1.499512,1.486328,70.908394,73.312981,-102.152672
-0.102295,1.984314,1.984314,136.763351,18.335878,-65.778625
0.065186,0.714111,1.984314,87.343513,-112.931297,-35.229008
0.992187,-0.452393,0.776855,-8.396947,-171.969467,-66.816795
1.984314,-1.015137,-2.000000,-86.419846,-197.015274,-34.137405
1.984314,-0.833984,-2.000000,-57.068703,-157.206100,-2.633588
1.984314,0.019043,-2.000000,-31.396946,-12.267176,-57.129772
1.984314,0.666992,-1.401367,8.496183,119.404579,-115.343513
1.924561,1.054443,0.658936,62.709923,166.732819,-107.206108
0.535400,1.428467,1.984314,110.015266,169.824432,-61.679390
-0.350830,1.378418,1.984314,106.549622,155.099243,-40.801525
-0.708252,0.831055,1.984314,60.648853,136.854965,-41.244274
-0.522461,0.309814,1.486328,-5.282443,84.992363,-51.183205
0.053223,-0.168213,-0.741211,-56.694656,35.198475,-64.755722
0.808105,-0.464355,-2.000000,-77.206108,-17.091602,-76.221375
1.450684,-0.402100,-2.000000,-70.549622,-33.526718,-74.671753
1.782959,0.062744,-2.000000,-46.007633,-26.961832,-63.854961
1.719971,0.664307,-2.000000,-14.351145,2.152672,-48.061069
1.269775,1.129883,-0.829590,11.152672,42.526718,-31.083969
0.555420,1.266846,1.346924,23.725191,82.801529,-16.106871
-0.213135,1.056396,1.984314,21.274809,114.717560,-7.061069
-0.804932,0.527588,1.984314,1.328244,128.015274,-4.007634
-1.039307,-0.226318,1.984314,-23.519083,116.931297,-6.557252
-0.861084,-0.907471,1.984314,-40.870228,86.541985,-13.526717
-0.346924,-1.314941,-0.169189,-44.351147,19.015266,-28.687023
0.358398,-1.360596,-2.000000,-27.229008,-33.175571,-40.557251
1.027588,-0.970459,-2.000000,0.992366,-69.496185,-50.435116
1.471436,-0.268066,-2.000000,25.290077,-79.786263,-57.564884
1.548340,0.492432,-2.000000,41.961834,-60.297710,-60.931297
1.237793,1.060059,-1.066650,43.251907,-19.335878,-57.068703
0.623291,1.313965,1.035156,27.122137,33.137405,-47.038166
-0.117676,1.193848,1.984314,0.885496,79.954201,-34.748093
-0.768311,0.743896,1.984314,-26.175573,104.648857,-23.053434
-1.106934,0.057373,1.984314,-40.366413,98.412216,-13.274809
0.830566,-1.154297,-2.000000,-31.381680,44.091602,-18.862595
1.378174,-0.625732,-2.000000,-8.992367,-20.587786,-29.198473
1.673340,0.224365,-2.000000,-4.435114,-57.213741,-26.587786
1.499268,0.885742,-1.366699,15.396947,-80.068703,-29.648855
0.865723,1.240479,0.485596,4.389313,-69.015266,-16.832062
-0.071045,1.274414,1.984314,-22.564886,-22.564886,8.419847
-0.983887,0.990479,1.984314,-75.221375,35.396946,46.290077
-1.511963,0.235840,1.984314,-99.229004,65.183205,71.312981
-1.640381,-0.677246,1.984314,-103.374046,47.114502,62.648853
-1.397949,-1.225586,1.190674,-33.015266,31.847328,87.183205
-0.739258,-0.909180,-1.068604,-2.442748,4.931298,136.160309
0.050537,-0.699463,-2.000000,-59.473282,-54.282444,176.923660
0.976318,-0.720215,-2.000000,-218.473282,-178.236649,231.152664
1.984314,-0.852539,-2.000000,-176.458008,-250.137405,248.175568
1.984314,-0.363770,-1.991211,-0.351145,-250.137405,248.175568
1.984314,1.404785,0.766602,122.908394,-250.137405,248.175568
1.984314,1.984314,1.984314,-99.396950,248.175568,-17.893129
1.854736,0.949951,1.984314,-29.351145,74.526718,1.137405
1.270752,0.375488,1.984314,-7.564886,154.885498,-44.404579
1.342041,-0.397705,-1.106201,-76.351143,156.076340,-90.206108
1.630127,-0.259766,-2.000000,-43.595421,189.091599,-136.656494
1.733398,0.968506,-2.000000,-11.885496,81.465652,-86.664124
1.815430,1.280518,-1.373047,72.458015,-214.412216,-4.519084
1.757813,1.651367,1.984314,132.312973,-250.137405,-53.450382
1.184814,0.895020,1.984314,84.801529,-250.137405,-110.977097
0.854492,-0.470215,1.984314,-0.122137,-178.839691,-113.564888
1.055908,-0.969727,0.902832,-39.870228,-108.068703,-47.702290
1.984314,-1.102051,-1.595947,-40.832062,-0.992366,-10.748092
1.984314,-1.135742,-2.000000,-15.389313,37.618320,12.541985
1.984314,-0.009277,-2.000000,15.885496,157.137405,-105.854965
1.984314,0.712891,-2.000000,54.442749,147.022903,-123.213737
1.742188,1.124268,-0.552002,102.251907,121.954201,-72.335876
0.722900,1.594971,1.553711,118.931297,120.984734,-23.992367
-0.149902,1.425049,1.984314,115.083969,120.450378,-11.045801
-0.766846,0.876709,1.984314,106.145035,71.221375,-21.832062
-0.820557,0.411133,1.984314,43.206108,56.648853,2.755725
-0.441406,-0.008301,1.675049,-9.015267,79.679390,1.832061
0.131836,-0.489746,-0.553467,-49.496181,96.610687,-11.290076
0.760498,-0.795166,-2.000000,-76.839691,94.442749,-30.099237
1.262207,-0.684326,-2.000000,-79.267174,75.603050,-39.526718
1.508545,-0.197510,-2.000000,-49.977100,25.519083,-39.961834
1.469482,0.463379,-2.000000,-21.549618,1.587786,-31.671755
1.127197,0.993652,-1.186035,3.236641,-6.312977,-28.030535
0.507324,1.278809,0.977783,16.816793,5.725191,-27.152672
-0.210937,1.197998,1.984314,12.496183,35.374046,-25.274809
-0.797852,0.749023,1.984314,-4.984733,75.053436,-21.374046
-1.079346,-0.006836,1.984314,-26.931297,111.000000,-16.977098
-0.984619,-0.717773,1.984314,-43.343510,127.564888,-15.664123
-0.573242,-1.181396,0.225586,-51.007633,117.526718,-18.908398
0.061279,-1.305664,-1.850342,-49.725189,82.106873,-26.488550
0.707031,-1.077393,-2.000000,-35.908398,8.877863,-40.244274
1.179688,-0.482422,-2.000000,-23.977098,-42.061069,-47.664124
1.314941,0.169922,-2.000000,-16.076336,-66.709923,-50.343510
1.081299,0.684570,-1.534668,-6.641222,-71.389313,-45.236641
0.547607,0.988525,0.697266,1.961832,-47.106869,-35.648853
-0.164062,1.038818,1.984314,2.053435,1.877863,-19.908398
-0.913574,0.824707,1.984314,-10.221375,69.137405,-1.122137
-1.449219,0.175293,1.984314,-42.068703,121.229004,18.832062
-1.670166,-0.425781,1.984314,-75.129768,110.526718,46.709923
-1.346191,-0.860107,0.696777,-76.511452,-1.442748,62.267174
-0.607910,-1.073242,-1.510986,-160.206100,-186.564880,137.122131
0.693115,-1.027344,-2.000000,-154.618317,-250.137405,144.610687
1.719482,-1.020996,-2.000000,-120.465652,-250.137405,132.129776
1.984314,-0.613037,-2.000000,-100.076332,-250.137405,192.969467
1.984314,-0.079102,-1.474121,-6.458015,-250.137405,211.221375
1.984314,0.211182,0.987305,97.809158,-214.480911,147.206100
1.984314,1.605713,1.984314,-19.015266,167.412216,116.374046
1.984314,1.502686,1.984314,-84.061066,248.175568,66.419846
1.656738,0.830566,1.984314,-48.076336,174.297714,7.152672
1.735352,0.019287,1.166016,-99.740456,106.839691,-41.694656
1.659912,-0.314697,-1.536133,-96.274811,101.625954,-103.412216
1.624756,0.405273,-2.000000,-22.366413,145.442749,-80.404579
1.250488,1.148926,-2.000000,35.343510,19.862595,-18.015266
1.213379,1.238770,0.034668,101.358780,-135.374039,49.381680
1.278076,1.407227,1.984314,106.022903,-159.351151,11.641221
0.940186,0.541992,1.984314,34.908398,-129.297714,-85.610687
0.771729,-0.793213,1.984314,-38.770992,-144.564880,-132.496185
1.473145,-1.424805,-0.705322,-66.290077,-166.923660,-113.297707
1.984314,-1.153809,-2.000000,-13.755725,-176.419846,-66.229004
1.984314,-0.380615,-2.000000,43.687023,-137.984726,-32.732826
1.984314,0.626465,-2.000000,63.900764,-36.862595,-27.656488
0.873535,0.639648,1.984314,48.083969,185.442749,-113.885498
0.219238,-0.201172,1.984314,57.709923,232.687027,-83.488548
0.031738,-0.791992,1.428955,89.236641,217.656494,7.870229
0.604004,-0.925049,-0.955078,90.267174,186.404587,46.648853
1.403809,-0.677734,-2.000000,74.549622,136.786255,2.343511
1.929932,-0.317871,-2.000000,54.641220,91.564888,-46.045803
1.984314,0.279297,-2.000000,56.053436,34.702290,-60.274811
1.968262,0.997070,-2.000000,66.366409,2.564885,-57.290077
1.455078,1.556885,-0.669189,73.030533,-8.320611,-55.618320
0.670410,1.757324,1.463623,73.122139,-0.969466,-62.343510
-0.170410,1.489014,1.984314,65.381676,47.572517,-64.755722
-0.750244,0.777100,1.984314,42.152672,97.320610,-58.198475
-0.908203,-0.084717,1.984314,19.137405,144.488556,-46.969467
-0.635742,-0.775635,1.055420,-9.229008,173.480911,-38.213741
-0.033447,-1.132568,-1.220459,-36.870228,174.740463,-36.396946
0.701416,-1.213379,-2.000000,-55.442749,149.770996,-39.312977
1.268066,-0.870605,-2.000000,-58.396946,109.396950,-41.641220
1.485596,-0.273926,-2.000000,-42.801525,68.786263,-42.885498
1.267822,0.376709,-2.000000,-12.167939,42.000000,-41.129772
0.653076,0.839600,-0.229004,21.511450,34.343510,-33.717556
-0.187012,0.981445,1.867676,58.641220,62.435116,-18.435114
-0.998779,0.794922,1.984314,69.618324,99.015266,-2.641221
-1.547363,0.214844,1.984314,48.442749,143.244278,12.916031
-1.700928,-0.452637,1.984314,17.564886,172.213745,26.274809
-1.480957,-0.964111,0.711670,-11.534351,166.603058,34.480915
-0.937500,-1.220703,-1.576172,-39.534351,119.106873,36.847328
-0.346924,-1.333008,-2.000000,-64.297707,48.473282,37.152672
0.084961,-1.126953,-2.000000,-62.343510,-18.687023,49.083969
0.279541,-0.486572,-2.000000,-22.809160,-80.671753,64.977097
0.237793,0.578857,-2.000000,25.641222,-177.961838,79.221375
0.212646,1.440430,-0.625488,59.587788,-250.137405,51.061069
-0.356201,1.327148,1.616699,4.442748,-250.137405,29.236641
-0.706299,0.773193,1.984314,60.816795,-250.137405,149.854965
-0.327148,0.859375,1.984314,-72.312981,-250.137405,248.175568
1.984314,0.354736,1.984314,22.076336,-250.137405,248.175568
1.984314,-0.162598,1.984314,197.396942,-110.625954,248.175568
1.984314,-1.211914,-0.078125,-129.549622,248.175568,-89.786263
1.984314,-0.788574,-2.000000,-73.366409,6.396946,-75.893127
1.984314,-0.879395,-2.000000,-212.000000,-70.450378,-121.465652
1.984314,0.093750,-2.000000,-155.038162,93.809158,-250.137405
0.268799,1.946533,0.737549,60.137405,248.175568,-122.358780
-0.552979,1.984314,1.984314,87.900764,-10.435115,62.801525
-0.527832,1.122803,1.984314,145.251907,-148.343506,42.732826
0.477783,0.069092,1.984314,93.763359,-227.732819,-1.137405
1.974121,-1.050537,-0.231445,34.297710,-250.137405,-114.824425
1.984314,-1.206543,-2.000000,-26.694656,-250.137405,-182.282440
1.984314,-0.225586,-2.000000,-46.328243,-247.206100,-138.198471
1.984314,0.734131,-1.159912,-1.862595,-100.511452,-16.061069
1.984314,1.260010,1.185303,34.702290,67.236641,39.770992
1.364502,1.327637,1.984314,35.129772,176.442749,35.946564
0.342285,0.864746,1.984314,27.580153,210.671753,20.618320
0.077881,0.318115,1.984314,7.435114,211.015274,-17.977098
-0.156250,-0.275635,1.984314,8.450381,137.427475,-28.389313
0.089355,-0.667969,0.163818,1.061069,115.259544,-40.954197
0.536621,-0.895996,-2.000000,-12.435115,87.557251,-47.725189
1.122803,-0.774902,-2.000000,-10.503817,37.763359,-44.885498
1.621582,-0.237793,-2.000000,6.145038,3.625954,-45.015266
1.821533,0.452148,-2.000000,25.427481,-11.893129,-53.503819
1.656738,1.082031,-2.000000,39.687023,-10.099236,-60.992367
1.167480,1.468994,-0.438965,47.000000,12.870229,-63.167938
0.438477,1.554443,1.526855,34.404579,77.145035,-52.145039
-0.334717,1.252441,1.984314,5.984733,126.801529,-34.679390
-0.907471,0.588867,1.984314,-21.358778,162.938934,-15.091603
-1.133057,-0.190186,1.984314,-41.572517,169.984726,-3.717557
-0.996826,-0.822510,1.984314,-50.641220,145.419846,-2.519084
-0.531494,-1.198975,0.003906,-41.061069,96.389313,-9.770992
0.137939,-1.297119,-1.933105,-20.198473,34.923664,-22.793894
0.786133,-1.051270,-2.000000,-1.534351,-17.748091,-33.236641
1.218262,-0.500000,-2.000000,20.045801,-43.557251,-34.793892
1.282715,0.190674,-2.000000,42.229008,-43.770992,-27.877863
0.979736,0.751221,-1.376953,62.847328,-1.030534,-10.992367
0.367432,1.019287,0.895508,72.183205,48.343510,6.282443
-0.377686,1.034424,1.984314,76.625954,83.396950,20.015266
-1.008789,0.775391,1.984314,65.412216,92.977097,25.633587
-1.368164,0.249756,1.984314,33.671757,86.389313,23.732824
-1.420166,-0.357666,1.984314,-6.045802,67.335876,20.267176
-1.212402,-0.848145,1.075195,-37.198475,37.610687,22.320610
-0.794434,-1.168701,-0.919434,-56.282444,-14.045801,32.305344
-0.228516,-1.225830,-2.000000,-59.763359,-119.557251,13.603053
0.223877,-1.143066,-2.000000,-43.274811,-225.633591,50.061069
-0.038330,0.849121,1.573486,23.572519,-235.412216,142.709930
-0.290283,1.266113,1.984314,56.656490,-223.618317,217.465652
-0.558594,1.364014,1.984314,4.923664,-210.938934,248.175568
-0.350830,1.338379,1.984314,-47.870228,-250.137405,248.175568
0.898437,0.547607,1.984314,80.045799,-250.137405,248.175568
1.984314,0.384521,1.984314,133.190842,-9.496183,248.175568
1.984314,-2.000000,-0.261963,-16.160305,248.175568,-129.595413
1.984314,-0.595947,-2.000000,6.038168,38.129772,-84.656487
1.984314,-0.612549,-2.000000,-211.160309,-3.099237,-42.030533
1.770752,-1.582520,-2.000000,-233.083969,211.167938,-189.885498
0.846191,0.136963,-2.000000,49.068703,153.526718,-106.603050
1.928955,1.984314,-1.572510,67.709923,-250.137405,80.687019
1.984314,1.984314,0.767578,92.595421,-250.137405,-1.312977
1.984314,1.640869,1.984314,67.580154,-250.137405,-81.549622
1.248291,0.454834,1.984314,27.595419,-231.213745,-102.068703
0.586426,-0.288330,1.984314,-22.175573,-129.152664,-27.625954
0.643555,-0.669678,1.444824,-51.931297,-5.580153,41.801525
1.126221,-1.043213,-0.734131,-69.870232,47.564884,58.083969
1.984314,-0.924072,-2.000000,-114.183205,182.427475,-49.305344
1.984314,-0.695312,-2.000000,-102.511452,147.305344,-82.297707
1.984314,-0.271973,-2.000000,-93.755722,143.595413,-131.580154
1.984314,0.165039,-2.000000,-24.244274,26.076336,-99.106873
1.894043,0.867676,-1.362061,36.610687,-13.587787,-58.679390
1.249512,1.466797,0.596191,80.541985,13.175572,-51.931297
0.403320,1.665527,1.984314,102.022903,34.839695,-55.778625
-0.355225,1.422607,1.984314,103.442749,54.648853,-49.511452
-0.794922,0.767090,1.984314,93.618324,91.473282,-34.076336
-0.804443,0.034912,1.984314,68.106873,127.786263,-19.900763
-0.447998,-0.511230,1.135498,35.702290,141.824432,-26.977098
0.125732,-0.822998,-0.921875,11.694656,126.763359,-45.671757
0.787842,-0.829102,-2.000000,-9.083969,74.389313,-63.480915
1.363281,-0.449219,-2.000000,-16.167938,34.106869,-70.984734
1.661621,0.128662,-2.000000,-6.862596,-2.702290,-82.053436
1.573486,0.719482,-2.000000,5.099236,-22.053434,-83.290077
1.158447,1.196289,-0.704346,12.190840,-17.534351,-72.610687
0.524902,1.431396,1.291748,14.236641,11.015267,-57.496181
-0.176025,1.250732,1.984314,7.763359,54.916031,-40.007633
-0.779053,0.733643,1.984314,-2.389313,107.259544,-27.396946
-1.165039,-0.043945,1.984314,-16.290077,161.977097,-14.236641
-1.223633,-0.767090,1.984314,-28.847328,196.641220,-1.862595
-0.954834,-1.256592,0.790039,-40.847328,183.671753,5.061069
-0.425293,-1.435547,-1.267090,-34.900764,131.389313,5.541985
0.217773,-1.118652,-2.000000,-22.687023,51.152672,-2.694656
0.761719,-0.512451,-2.000000,-12.541985,-29.664122,-13.221375
1.060791,0.125732,-2.000000,-0.900763,-84.404579,-19.221375
1.000732,0.705811,-2.000000,12.580153,-103.366409,-14.893129
0.558594,1.114258,-0.423096,13.541985,-74.801529,-0.381679
-0.165039,1.284668,1.630859,1.419847,-25.458015,21.526718
-0.905029,0.941650,1.984314,-16.045801,6.648855,41.427483
-1.484619,0.317383,1.984314,-25.526718,0.022901,70.496185
-1.699463,-0.192383,1.984314,-28.954199,-23.938931,97.404579
-1.653320,-0.685059,1.984314,-10.358779,-50.450382,135.045807
-1.315430,-1.005127,1.368652,-20.282442,-89.305344,194.687027
-0.644775,-1.312744,-0.516113,-116.145035,-199.694656,248.175568
0.803955,-1.166504,-1.790527,-212.236649,-250.137405,248.175568
1.984314,-1.085205,-2.000000,-48.412212,-250.137405,248.175568
1.984314,-0.583008,-1.813477,57.664124,-250.137405,248.175568
1.984314,0.597412,-2.000000,-8.351145,248.175568,-49.618320
1.984314,1.235596,-1.825195,9.190840,-9.236641,-35.083969
1.984314,1.431152,-0.835205,18.244274,-24.984734,-45.877861
1.984314,1.025391,0.847656,-10.458015,16.618320,-103.435112
0.526611,0.648437,1.984314,-18.122137,223.893127,-184.610687
-0.534180,0.355469,1.984314,-15.274809,248.175568,-123.213737
-0.289551,-0.202393,1.207520,19.053434,42.366413,-58.801525
1.185303,-0.526855,-1.488770,39.404579,-189.564880,-43.877861
1.984314,-0.339355,-2.000000,42.503819,-250.137405,-110.862595
1.984314,-0.003662,-2.000000,-25.083969,-250.137405,-141.801529
1.984314,0.313965,-0.326904,-53.114502,-203.961838,-123.328247
1.984314,1.175537,1.984314,-6.534351,-25.641222,-92.183205
1.572021,0.809570,1.984314,-18.221375,221.603058,-120.106873
0.228027,0.205322,1.984314,25.297710,248.175568,-47.305344
-0.426270,-0.111328,1.984314,59.213741,248.175568,4.473282
-0.377441,-0.056885,1.512451,34.687023,191.480911,-15.374045
-0.060303,-0.144287,-0.764893,3.717557,61.687023,-65.419846
0.507080,-0.266846,-2.000000,-42.389313,-20.725191,-90.557251
1.104492,-0.306152,-2.000000,-80.068703,-52.824429,-87.435112
1.600098,-0.059326,-2.000000,-71.572517,-58.396946,-74.824425
1.759766,0.247559,-2.000000,-22.213741,-37.038166,-76.450378
1.555176,0.656006,-1.754150,-3.122137,18.473282,-56.763359
1.107178,1.063232,0.083740,-0.450382,90.129768,-37.358780
-0.987061,-0.251465,1.984314,-16.061069,168.648849,-25.816793
-0.907471,-0.921631,1.663330,-27.557251,205.946564,-28.801527
-0.593018,-1.372559,-0.409668,-39.687023,215.358780,-30.091602
-0.073486,-1.430420,-2.000000,-41.358780,184.503815,-27.282442
0.528809,-1.103027,-2.000000,-37.946564,120.755722,-28.839695
1.017822,-0.497314,-2.000000,-30.450382,42.748093,-44.549618
1.172119,0.163818,-2.000000,-20.648855,-17.480917,-63.816795
0.856689,0.620117,-1.713867,-10.809160,-28.862595,-70.274811
0.135498,0.750732,0.263916,1.427481,4.755725,-53.374046
-0.818115,0.698242,1.786621,13.526717,64.587784,-13.832061
-1.829834,0.633301,1.984314,36.572517,180.992371,44.152672
-2.000000,0.552979,1.984314,42.648853,248.175568,105.343513
-2.000000,0.340820,1.984314,-0.549618,230.404587,124.038170
-2.000000,-0.548828,1.253174,-80.526718,21.259542,132.335876
-2.000000,-1.250732,-0.254395,-117.725189,-250.137405,149.465652
-1.098633,-1.608887,-1.644043,-120.274811,-250.137405,248.175568
1.707520,-1.881104,-2.000000,-157.396942,-250.137405,248.175568
1.984314,-1.046875,1.915527,248.175568,-250.137405,248.175568
1.984314,-0.548828,-2.000000,-250.137405,248.175568,-242.885498
1.984314,0.380859,-2.000000,-137.786255,-250.137405,-113.038170
1.984314,0.362061,-2.000000,-169.007629,-111.625954,-194.687027
1.984314,0.001221,-1.505859,-146.786255,-14.435115,-250.137405
-0.146240,0.685791,1.984314,-28.480917,248.175568,-250.137405
-1.887451,1.984314,1.984314,148.946564,248.175568,-9.473283
-1.402588,1.984314,1.984314,199.709930,-25.015266,121.862595
-0.025146,0.208984,1.984314,153.274811,-192.000000,-0.961832
1.663574,-0.534668,-1.163574,21.946566,-250.137405,-99.832062
1.984314,-1.035400,-2.000000,-88.931297,-250.137405,-154.045807
1.984314,-0.518799,-2.000000,-64.557251,-95.633591,-206.442749
1.984314,-0.008057,-2.000000,30.396946,24.717558,-182.977097
1.984314,0.743408,-0.042480,139.458008,99.931297,-62.679390
1.334961,1.655029,1.984314,149.541992,174.404587,55.175571
0.597900,1.984314,1.984314,121.221375,205.221375,19.961832
-0.171631,1.984314,1.984314,30.122137,222.244278,-114.877861
-0.833252,0.869141,1.984314,-104.564888,215.748093,-171.412216
-0.866943,-0.223389,0.707275,-173.572525,177.473282,-130.328247
-0.280029,-0.992920,-1.210449,-181.061066,145.549622,-83.885498
0.556152,-1.297852,-2.000000,-143.763351,122.847328,-64.206108
1.204102,-0.988281,-2.000000,-76.862595,102.015266,-63.038166
1.400391,-0.327637,-2.000000,-20.572519,84.465652,-63.618320
1.153320,0.342285,-2.000000,5.137404,97.328247,-54.206108
0.434326,0.650146,-1.304932,-2.946565,180.282440,-28.404581
-0.620850,0.606689,0.583740,-15.923664,248.175568,15.916031
-1.718994,0.395996,1.984314,-15.923664,248.175568,73.900764
-2.000000,0.112061,1.984314,-4.763359,248.175568,126.580154
-2.000000,-0.189697,1.984314,-7.603054,235.709930,153.129776
-2.000000,-0.417969,1.972412,-48.854961,151.122131,136.114502
-2.000000,-0.842041,0.433350,-96.641220,39.664124,102.167938
-2.000000,-1.642822,-1.581543,-154.595413,-71.122139,90.099236
-1.534912,-2.000000,-2.000000,-171.511444,-217.816788,134.587784
-0.197998,-2.000000,-2.000000,-75.412216,-250.137405,196.656494
1.958008,-1.210693,-2.000000,129.770996,-250.137405,150.099243
1.984314,1.506592,-2.000000,248.175568,-250.137405,-46.419846
1.984314,1.603027,-0.419189,248.175568,-250.137405,248.175568
1.984314,1.984314,-0.410645,-85.732826,25.274809,135.152664
1.984314,0.958252,-0.411133,-250.137405,87.412216,-166.519089
1.984314,0.024414,1.984314,-196.977097,39.251907,-108.061066
1.984314,0.681152,1.984314,-79.374046,163.129776,-127.534348
1.096436,0.352539,1.984314,-23.297710,248.175568,-192.221375
0.338867,-0.404541,1.984314,52.633587,248.175568,-163.572525
-0.029541,-0.371094,0.894043,169.954193,248.175568,-41.938931
0.770996,0.457275,-1.627441,219.946564,216.404587,-1.687023
1.614014,0.929932,-2.000000,163.938934,11.557252,-24.580153
1.984314,1.024658,-2.000000,135.671753,-79.687019,-41.183205
1.984314,1.451416,-2.000000,137.816788,-86.862595,-64.389313
1.984314,1.709961,-0.849365,143.519089,-51.396946,-94.793892
1.604980,1.955322,1.149170,127.160309,18.145039,-101.335876
0.842529,1.984314,1.984314,72.717560,95.000000,-89.404579
0.132080,1.340088,1.984314,12.114504,168.419846,-75.770996
-0.333252,0.499023,1.984314,-2.267176,217.946564,2.419847
-0.261719,0.253174,1.984314,-90.290077,236.694656,2.595420
-0.180664,-0.192627,1.535889,-127.221375,179.916031,-82.045799
0.045898,-0.652344,-0.447266,-152.534348,106.167938,-125.244278
0.521484,-0.937988,-2.000000,-125.061066,37.694656,-140.778625
1.094482,-0.841309,-2.000000,-109.687019,3.381679,-129.160309
1.532227,-0.483643,-2.000000,-82.167938,7.984733,-122.862595
1.572510,-0.152100,-2.000000,-55.709923,37.404579,-109.320610
1.282471,0.125732,-2.000000,-43.290077,95.687019,-76.145035
0.738281,0.366699,-1.162598,-51.702290,172.648849,-30.396946
-0.022461,0.574463,0.773682,-56.442749,224.694656,5.366412
-0.839600,0.573486,1.984314,-39.725189,230.083969,24.694656
-1.504639,-1.324951,0.294189,-46.610687,214.694656,32.656490
-1.106934,-1.543945,-1.593994,-63.305344,178.374039,33.625954
-0.631348,-1.631592,-2.000000,-78.022903,128.648849,37.206108
-0.230957,-1.481689,-2.000000,-69.656487,59.519085,48.374046
0.123779,-1.014404,-2.000000,-29.374046,-28.923664,59.832062
0.475830,-0.171631,-2.000000,0.938931,-115.351143,55.381680
0.647461,0.579590,-2.000000,-16.801527,-144.793900,29.450382
0.333740,0.462646,-1.762451,-72.175575,-173.809158,63.389313
0.202881,0.718994,-0.080566,-167.099243,-178.709930,166.213745
0.059082,0.992676,1.333008,-112.290077,-218.198471,164.473282
-0.216553,0.812988,1.984314,-26.740458,-250.137405,152.534348
0.065430,0.935059,1.984314,-51.259541,-250.137405,179.725189
0.823975,0.590088,1.984314,-18.816793,-250.137405,214.885498
1.982910,-0.381348,1.984314,129.625961,-250.137405,247.832062
1.984314,-0.723633,1.984314,87.732826,-250.137405,248.175568
1.984314,-0.529541,1.294678,-58.511452,128.763351,48.610687
1.984314,-0.767578,-2.000000,-99.076332,160.702286,12.572519
1.984314,-0.014648,-2.000000,-76.450378,61.572517,-45.358780
1.984314,0.845215,-2.000000,-41.480915,-44.946564,-121.358780
1.984314,1.774414,-2.000000,12.122137,-90.206108,-148.740463
1.980225,1.984314,0.052979,69.480919,-59.442749,-154.541992
0.927734,1.984314,1.984314,93.564888,-3.061069,-119.106873
0.160156,1.601563,1.984314,94.488548,61.801525,-61.129772
0.006592,0.766846,1.984314,58.702290,125.786263,-28.908398
0.168701,0.099365,1.984314,30.862595,147.358780,-31.190840
0.574707,-0.447998,1.232422,18.900763,124.091606,-32.900764
1.136963,-0.892578,-0.420898,37.045803,97.045799,-31.167938
1.756104,-0.922363,-1.810059,76.000000,98.580154,-43.908398
1.984314,-0.743652,-2.000000,104.076332,107.175575,-70.969467
1.984314,-0.045654,-2.000000,105.587784,91.106873,-96.900764
1.984314,0.729248,-2.000000,107.145035,41.534351,-101.381676
1.984314,1.381104,-2.000000,83.755722,52.885498,-90.007637
1.984314,1.705566,-1.866455,37.167938,75.496185,-87.709923
1.670166,1.794434,-0.349365,-23.412214,91.931297,-102.572517
0.879639,1.652832,1.268555,-66.183205,106.770996,-106.587784
0.114258,1.400391,1.984314,-82.229004,120.183205,-93.931297
-0.463379,1.110107,1.984314,-86.526718,137.396942,-87.503815
-0.889404,0.460693,1.984314,-78.343513,159.251907,-90.977097
-1.106934,-0.233154,1.984314,-82.603050,183.709930,-83.763359
-1.092773,-0.841797,1.984314,-83.145035,205.236649,-68.549622
-0.922607,-1.331299,0.326660,-100.412216,216.106873,-43.450382
-0.593750,-1.629639,-1.414795,-103.938934,215.129776,-17.633587
-0.215576,-1.724121,-2.000000,-84.770996,178.908401,1.900763
0.074951,-1.530518,-2.000000,-55.801525,119.610687,16.000000
0.206543,-1.034180,-2.000000,-41.419846,77.320610,31.137405
0.154297,-0.523926,-2.000000,-36.465649,46.694656,46.488548
-0.035156,-0.020508,-2.000000,-28.465649,0.381679,55.801525
-0.275391,0.317383,-2.000000,-8.603053,-35.702290,39.404579
-0.555420,0.458252,-1.410645,-8.236641,-100.778625,30.648855
-0.997314,0.340576,-0.125732,-20.435114,-144.511444,56.816795
-1.323975,0.339355,1.144287,-18.427481,-162.335876,115.862595
-1.535400,0.392822,1.984314,-35.450382,-185.702286,164.251907
-1.738281,0.291260,1.984314,-149.465652,-250.137405,248.175568
-1.265137,0.456055,1.984314,-199.480911,-250.137405,248.175568
0.833496,-0.100342,1.984314,2.267176,-250.137405,248.175568
1.984314,-0.320068,1.984314,245.969467,-250.137405,248.175568
1.984314,-0.074219,1.984314,-104.748093,165.572525,9.480916
1.984314,-1.855469,-2.000000,-250.137405,191.854965,-173.015274
1.984314,-1.301758,-2.000000,-250.137405,-56.526718,-250.137405
1.984314,-1.154785,-2.000000,-158.145035,56.816795,-250.137405
1.401611,0.130371,-2.000000,98.320610,150.679382,-223.633591
0.822510,1.984314,-0.472412,129.076340,178.007629,-59.343510
0.327148,1.984314,1.984314,133.541992,115.854965,-4.885496
-0.346924,1.984314,1.984314,167.213745,-23.244274,3.603053
-0.012695,0.589355,1.984314,84.793892,-132.442749,-34.725189
0.772949,-0.919434,1.984314,11.793893,-184.854965,-47.167938
1.842773,-1.175781,0.586426,18.641222,-115.633591,-75.877861
1.984314,-1.016113,-1.683594,85.244278,-45.610687,-98.419846
1.984314,-0.791992,-2.000000,159.465652,32.541985,-103.717560
1.984314,-0.312744,-2.000000,116.809158,101.992363,-65.625954
1.984314,0.980469,-2.000000,106.160309,36.900764,15.305344
1.984314,1.973633,-2.000000,118.106873,49.832062,-32.587788
1.850830,1.984314,-1.405762,28.015266,83.290077,-98.595421
1.059082,1.804688,0.389160,-43.923664,67.183205,-101.091606
0.398193,1.474609,1.984314,-66.137405,77.877861,-62.236641
-0.031738,1.169922,1.984314,-69.106873,124.007637,-26.083969
-0.304199,0.727295,1.984314,-63.709923,170.045807,-24.000000
-0.523926,0.097656,1.984314,-52.427483,206.587784,-38.465649
-0.638672,-0.509277,1.984314,-34.435116,227.603058,-52.748093
-0.617920,-0.974609,1.446289,-15.190840,216.473282,-62.442749
1.447998,-0.184814,-2.000000,-4.580153,150.656494,-71.923668
1.331787,0.372803,-2.000000,0.564885,103.267174,-78.519081
0.990234,0.717041,-2.000000,-5.297710,73.557251,-72.595421
0.439941,0.882324,-0.443115,-11.381680,73.458015,-52.595421
-0.254883,0.936035,1.213867,-4.809160,83.175575,-27.503817
-0.950195,0.854736,1.984314,10.961832,83.541985,-7.824428
-1.493164,0.614258,1.984314,29.015266,66.557251,0.282443
-1.760742,0.311279,1.984314,40.129772,34.343510,-3.358779
-1.826660,-0.126465,1.984314,28.961832,17.793894,-11.480916
-1.821289,-0.677002,1.984314,-1.396947,52.198475,-7.274809
-1.770752,-1.125732,1.205322,-44.435116,100.656487,17.832062
-1.631836,-1.280273,-0.047363,-65.946564,101.145035,48.022900
-1.336426,-1.235840,-1.060303,-65.847328,63.793892,68.106873
-0.831055,-1.119873,-2.000000,-61.618320,5.458015,67.992363
-0.339111,-1.065674,-2.000000,-78.862595,-52.656490,69.885498
-0.030762,-1.112305,-2.000000,-107.351143,-74.755722,92.725189
0.186279,-1.024414,-2.000000,-135.816788,-125.755722,162.832062
0.776611,-0.177490,-2.000000,-229.366409,-250.137405,203.076340
1.613525,-0.194580,-2.000000,-218.526718,-250.137405,244.908401
1.984314,0.183105,-2.000000,48.259541,-250.137405,248.175568
1.984314,1.514160,0.296387,248.175568,-250.137405,248.175568
1.984314,1.984314,0.957031,-51.389313,129.083969,84.259544
1.984314,1.737061,0.343018,-190.053436,136.152664,-112.534348
1.984314,1.094238,1.943115,-77.267174,-27.312977,-181.847336
1.755615,1.048828,1.984314,-16.480917,25.763359,-248.244278
0.797607,0.398926,1.984314,46.992367,201.877869,-250.137405
-0.074463,-0.276855,1.984314,59.847328,248.175568,-174.885498
0.010010,0.127441,0.402344,113.175575,248.175568,-58.450382
0.739014,0.711670,-1.666016,141.854965,248.175568,-17.656488
1.467529,0.879395,-2.000000,72.427483,103.335876,-34.931297
1.984314,0.782471,-2.000000,1.473282,-64.106873,-49.320610
1.984314,0.337158,-2.000000,11.076336,-157.244278,-39.961834
1.984314,0.482666,-1.226807,94.458015,-161.694656,-49.633587
1.984314,0.933594,0.163330,178.564880,-75.389313,-82.145035
1.757324,1.427002,1.480957,207.641220,-7.129771,-85.106873
1.065430,1.928711,1.984314,172.618317,33.396946,-71.396950
0.480713,1.984314,1.984314,113.061066,95.038170,-89.038170
-0.117188,1.398682,1.984314,48.358780,141.320618,-90.885498
-0.541504,0.732666,1.984314,1.007634,174.320618,-41.038166
-0.635254,0.473877,1.984314,-99.206108,200.343506,-33.312977
-0.690430,-0.065674,1.984314,-150.167938,200.320618,-67.099236
-0.610107,-0.618164,1.156006,-169.557251,178.763351,-77.633591
-0.293701,-0.984131,-0.355713,-172.885498,157.526718,-79.862595
0.137939,-1.185547,-1.827393,-156.221375,130.450378,-84.702293
0.529053,-1.223145,-2.000000,-139.511444,104.335876,-81.213737
0.817627,-1.109619,-2.000000,-121.511452,95.832062,-64.389313
0.956543,-0.798828,-2.000000,-96.389313,96.099236,-39.755726
0.899414,-0.400879,-2.000000,-69.145035,84.122139,-16.526718
0.698242,-0.037598,-2.000000,-36.908398,53.465649,0.603053
0.413086,0.259521,-1.572021,4.152672,-0.244275,8.816793
0.129395,0.532959,-0.124756,44.679390,-32.198475,8.755725
-0.188232,0.768799,1.180664,64.404579,-35.206108,6.282443
-0.570801,0.893799,1.984314,70.656487,-6.526718,12.183207
-0.998291,0.829834,1.984314,63.465649,32.694656,29.213741
-1.420166,0.582031,1.984314,39.702290,71.312981,56.122139
-1.757080,0.338867,1.984314,7.045802,116.259544,83.946564
-2.000000,0.130371,1.984314,-25.038168,124.534348,104.977097
-2.000000,0.016846,1.984314,-54.351147,69.229004,115.374046
-1.937988,-0.548096,1.984314,-84.740456,15.549619,123.091606
-1.847656,-1.054199,1.150879,-176.068695,-88.511452,140.030533
-1.395996,-1.046387,0.653564,-197.160309,-242.419846,192.312973
-0.311768,-1.625732,0.197510,-165.977097,-250.137405,248.175568
1.984314,-1.558838,-0.311035,45.351147,-250.137405,248.175568
1.984314,-0.445068,-0.223145,248.175568,-250.137405,248.175568
1.984314,1.053223,-1.124268,-57.015266,148.801529,66.984734
1.984314,0.360107,-2.000000,-250.137405,118.007637,-181.893127
1.984314,0.534180,-2.000000,-126.961830,58.526718,-250.137405
1.984314,0.882812,-2.000000,16.595419,53.946564,-250.137405
1.438965,1.465088,0.540039,85.961830,84.297707,-190.580154
0.382813,1.984314,1.984314,114.251907,248.175568,-93.473282
-0.395020,1.984314,1.984314,141.251907,248.175568,-45.450382
-0.768799,1.756836,1.984314,106.847328,161.633591,-24.984734
-0.543945,0.932373,1.984314,18.458015,76.000000,-22.251909
0.183594,0.095703,1.984314,-31.633587,-8.694656,-22.114504
1.060059,-0.532959,0.216309,-29.351145,-94.793892,-22.099237
1.868896,-0.927002,-1.241943,39.885498,-122.763359,-38.984734
1.984314,-0.819824,-2.000000,141.679382,-73.618324,-82.343513
1.984314,-0.116699,-2.000000,182.328247,-38.007633,-92.007637
1.984314,0.894775,-2.000000,113.450378,-27.725191,-62.122139
1.984314,1.592773,-2.000000,51.717556,24.541985,-86.809158
1.984314,1.656982,-2.000000,-19.877863,35.938931,-119.923668
-0.211182,1.284668,1.984314,-60.656490,53.244274,-117.038170
-0.599365,0.670410,1.984314,-93.702293,76.198471,-82.770996
-0.725586,0.221191,1.984314,-103.526718,113.419846,-69.816795
-0.741455,-0.264648,1.984314,-86.412216,151.480911,-70.633591
-0.620605,-0.697021,1.928223,-73.679390,193.488556,-70.427483
-0.453613,-1.020020,0.427002,-54.671757,226.114502,-72.755722
-0.219482,-1.183594,-1.207031,-53.755726,239.832062,-65.786263
0.077148,-1.254883,-2.000000,-72.839691,244.503815,-53.083969
0.331787,-1.228271,-2.000000,-102.595421,242.312973,-34.587788
0.449463,-1.089355,-2.000000,-129.679382,224.381683,-6.381680
0.439453,-0.822266,-2.000000,-113.267174,139.465652,15.969465
0.489990,-0.320313,-2.000000,-61.122139,13.022901,20.908398
0.601074,0.188232,-2.000000,-14.564885,-98.969467,-1.564885
0.520020,0.432373,-1.520264,3.541985,-130.870224,-19.068703
0.108887,0.492920,-0.602295,-2.549618,-80.374046,0.358779
-0.588623,0.472656,0.612061,-0.839695,18.404581,59.305344
-1.345947,0.547852,1.706543,30.328245,81.679390,126.564888
-1.907959,0.900635,1.984314,60.480915,45.610687,171.458008
-2.000000,0.738037,1.984314,10.473283,-3.916031,149.938934
-2.000000,0.019043,1.984314,-54.251907,-75.465652,126.740456
-2.000000,-0.259766,1.984314,-52.656490,-169.137405,154.152664
-1.901855,-0.068604,1.984314,-9.541985,-250.137405,134.404587
-1.410156,-0.131104,1.984314,-8.694656,-250.137405,128.366409
0.393555,-1.142334,1.984314,-28.816793,-250.137405,248.175568
1.984314,0.086914,1.984314,248.175568,-250.137405,248.175568
1.984314,0.849365,1.984314,137.664124,248.175568,-32.000000
1.984314,-1.745605,-2.000000,-250.137405,248.175568,18.732824
1.984314,-0.567871,-2.000000,-236.175568,143.366409,-121.664124
1.984314,-0.498047,-2.000000,-165.068695,20.671755,-250.137405
1.984314,-0.719238,-2.000000,-90.923668,94.755722,-250.137405
1.726563,-0.291992,-2.000000,-5.748092,248.175568,-206.244278
1.023193,1.055664,-2.000000,114.015266,248.175568,-77.175575
0.768311,1.984314,-0.902344,216.007629,20.427481,31.938931
1.051025,1.984314,1.147705,158.213745,-147.717560,50.038166
1.277344,1.460693,1.984314,55.557251,-209.404587,12.946565
1.287354,0.812744,1.984314,36.564884,-206.267181,-13.709924
1.109131,0.561523,1.984314,78.908394,-155.633591,-34.488548
0.747803,0.439453,1.984314,143.083969,-27.687023,-49.351147
0.365234,0.111572,1.984314,199.152664,109.053436,-36.946564
-0.048096,-0.099365,1.984314,219.152664,163.923660,6.068702
-0.109375,0.362305,1.984314,146.343506,158.229004,29.847328
0.034668,0.515137,0.767578,28.541985,137.664124,0.809160
0.224609,0.183350,-0.719238,-70.816795,110.778625,-34.328243
0.446045,-0.271240,-2.000000,-138.091599,67.885498,-33.404579
0.893799,-0.550781,-2.000000,-169.183212,15.793893,-21.190840
1.370605,-0.576416,-2.000000,-149.900757,-13.335877,-23.946566
1.758545,-0.387939,-2.000000,-107.213737,-31.206106,-33.946564
1.980713,-0.072998,-2.000000,-58.595421,-29.297710,-44.412212
1.984314,0.274414,-2.000000,-13.938931,-16.770992,-51.656490
1.866943,0.643799,-2.000000,22.496183,-3.053435,-55.870228
1.571777,0.964355,-1.430176,57.274811,18.366413,-59.816795
1.150146,1.141113,-0.092285,72.664124,36.816795,-64.419846
0.642578,1.215820,1.240234,73.007637,61.725189,-65.160309
0.096924,1.182129,1.984314,61.977100,91.519081,-60.488548
-0.397705,0.990967,1.984314,46.229008,125.167938,-52.015266
-0.814453,0.631104,1.984314,24.167938,158.954193,-40.450382
-1.106934,0.136230,1.984314,-3.854962,189.946564,-27.312977
-1.258301,-0.352295,1.984314,-33.221375,208.396942,-13.404580
-1.281006,-0.728760,1.860596,-57.480915,207.954193,2.519084
-1.156982,-0.985107,0.526367,-62.587788,172.725189,18.244274
-0.871094,-1.109619,-0.813232,-49.068703,87.381676,24.000000
-0.496582,-1.139648,-2.000000,-32.030533,19.282442,25.496183
-0.167236,-1.086182,-2.000000,-25.618320,-23.435114,31.068703
0.040771,-0.893555,-2.000000,-33.000000,-25.664122,45.045803
0.013184,-0.694092,-2.000000,-42.687023,-8.290076,65.534348
-0.178467,-0.638672,-2.000000,-62.061069,-73.656487,109.251907
0.020264,-0.392090,-2.000000,-106.519081,-223.801529,161.473282
0.536377,-0.197754,-2.000000,-125.778625,-250.137405,176.694656
1.585938,-0.500977,-2.000000,-70.366409,-250.137405,248.175568
1.984314,0.854004,-0.763672,-49.435116,-250.137405,248.175568
1.984314,1.952148,1.370117,192.152664,-250.137405,248.175568
1.984314,1.650635,1.984314,172.572525,-63.748093,213.328247
1.984314,1.199219,1.984314,-38.725189,245.458008,58.671757
1.984314,0.858398,1.984314,-21.641222,109.824425,33.244274
1.984314,1.455322,1.984314,-1.198473,31.679390,-54.816795
1.203125,1.200684,1.984314,-65.091606,27.076336,-44.389313
0.097656,0.293213,1.984314,-78.167938,124.358780,-35.061069
-0.441895,-0.185059,1.984314,-69.175575,144.190842,-52.183205
-0.535889,-0.287354,1.214844,-22.694656,82.091606,-42.488548
-0.082275,-0.519531,0.310547,14.587787,-3.007634,-15.549619
1.984314,0.031250,-2.000000,9.946565,-84.221375,-14.198473
1.984314,0.031006,-2.000000,22.786259,-138.458008,-9.267176
1.984314,0.466553,-1.712402,58.793892,-168.587784,-24.900763
1.984314,0.817627,-1.099365,69.274811,-156.229004,-51.343510
1.984314,1.063477,-0.547119,62.648853,-143.236649,-76.152672
1.984314,1.044189,-1.622314,37.595421,-127.809158,-102.633591
0.651855,0.942383,1.984314,62.572517,-17.290077,-89.862595
0.073242,0.645752,1.984314,62.625954,37.129772,-62.290077
-0.264404,0.283203,1.984314,53.793892,114.961830,-23.000000
-0.348877,-0.031738,1.984314,30.221375,171.076340,-7.961832
-0.440430,-0.391846,1.984314,10.221375,173.442749,-8.404580
-0.449707,-0.704102,0.982910,-4.137404,150.435120,0.900763
-0.116211,-0.919922,-0.262695,-12.190840,131.877869,-2.534351
0.439941,-1.057129,-1.548340,-12.923664,148.167938,-43.160305
0.708984,-0.979248,-2.000000,-19.557251,127.679390,-41.167938
1.052246,-0.712158,-2.000000,-21.038168,105.183205,-39.030533
1.322510,-0.380615,-2.000000,-26.916031,70.633591,-36.030533
1.524658,0.005859,-2.000000,-27.725191,33.503819,-30.648855
1.616699,0.331543,-2.000000,-20.709923,2.908397,-31.290077
1.533447,0.589355,-2.000000,1.809160,-28.229008,-34.541985
1.288330,0.831787,-1.333496,23.458015,-31.022902,-28.648855
0.901611,1.065430,0.041016,48.770992,-24.419847,-20.679390
0.438232,1.245117,1.338379,72.480919,-12.717557,-13.740458
-0.039063,1.336426,1.984314,85.091606,-3.404580,-9.648855
-0.466064,1.234619,1.984314,80.083969,5.503817,-9.519084
-0.803711,0.857666,1.984314,57.824429,22.282442,-6.381680
-1.024658,0.307129,1.984314,33.282444,52.541985,2.595420
-1.124023,-0.202881,1.984314,22.526718,84.419846,15.206107
-1.088135,-0.535889,1.984314,25.244274,95.969467,19.977098
-0.914551,-0.633057,1.879150,12.709924,83.977097,12.549619
-0.629150,-0.762451,0.576172,-13.282443,65.312981,0.007634
-0.236328,-0.932617,-0.743896,-49.832062,32.801525,-7.954198
0.232666,-1.033936,-1.912842,-74.763359,-8.274809,-8.419847
0.663086,-0.990479,-2.000000,-87.427483,-42.396946,-19.152672
0.920898,-0.917480,-2.000000,-89.854965,-52.091602,-0.160305
1.179199,-0.732178,-2.000000,-69.984734,-61.549618,34.709923
1.340088,-0.482666,-2.000000,-46.977100,-84.198471,55.885498
1.351563,0.014893,-2.000000,-11.450381,-119.114502,69.992363
1.474609,0.616943,-2.000000,15.961832,-165.206100,79.870232
1.600830,0.975586,-2.000000,-46.801525,-236.366409,110.595421
1.702881,0.948486,-0.890137,-115.290077,-250.137405,248.175568
1.984314,1.676025,0.065918,1.610687,-250.137405,248.175568
1.984314,1.470215,1.046875,113.030533,-132.213745,98.923668
1.984314,1.571045,1.884277,89.748093,-24.343512,-1.412214
1.984314,1.565918,1.984314,-31.335878,111.458015,40.419846
1.984314,1.543457,1.984314,-11.954199,18.969465,-53.038166
1.357422,1.365967,1.984314,-21.091602,19.267176,-82.442749
0.154053,0.916016,1.984314,-1.595420,79.809158,-87.625954
-0.736816,0.714111,1.984314,43.083969,124.076332,-54.755726
-0.827148,0.684326,1.984314,86.450378,29.427481,12.381680
-0.013428,0.456299,1.984314,59.320610,-63.687023,18.633587
0.555176,0.018555,1.984314,-5.015267,-78.824425,13.068703
1.041260,-0.262939,1.226074,-67.343513,-46.083969,11.847328
1.258545,-0.621338,0.336182,-98.908394,5.030534,1.351145
1.217285,-1.021729,-0.349609,-99.564888,41.450382,-30.335878
1.094482,-1.420898,-1.216309,-75.442749,35.946564,-43.145039
1.222168,-1.333008,-1.981201,-47.427483,-2.656489,-38.389313
1.605713,-1.147705,-2.000000,-14.412213,-38.320610,-23.274809
1.984314,-0.869385,-2.000000,-21.992367,-4.740458,-39.625954
1.984314,-0.588867,-2.000000,-28.290077,52.167938,-46.664124
1.984314,-0.302979,-2.000000,-9.969465,42.916031,-38.152672
1.737549,-0.212402,-2.000000,0.259542,39.969467,-44.458015
1.758057,0.252197,-2.000000,14.412213,14.709924,-40.427483
1.635498,0.594238,-2.000000,1.190840,36.526718,-45.259541
1.362305,0.942139,-2.000000,29.870230,3.885496,-13.404580
1.154053,1.206543,-1.484131,32.946564,10.801527,-0.442748
0.845947,1.427002,-0.315186,28.152672,24.679390,0.030534
0.431152,1.479248,1.049072,23.648855,34.198475,-1.343511
0.002930,1.398438,1.984314,14.396947,46.580154,-2.022901
-0.396973,1.195801,1.984314,-3.954198,58.251907,0.068702
-0.707031,0.825928,1.984314,-32.076336,84.473282,10.206107
-0.908936,0.399902,1.984314,-41.755726,93.595421,17.992367
-1.012939,0.059814,1.984314,-38.206108,96.221375,20.519083
-1.076172,-0.235107,1.984314,-35.396946,94.778625,18.213741
-1.068604,-0.508057,1.984314,-36.793892,81.068703,15.236641
-0.974609,-0.725830,1.984314,-38.938931,56.412212,10.190840
-0.774658,-0.899902,1.087646,-39.312977,25.236641,4.007634
-0.467529,-1.044922,-0.062744,-37.793892,-12.366412,-2.503817
-0.075928,-1.117188,-1.104004,-32.465649,-52.076336,-8.816793
0.357178,-1.110596,-2.000000,-34.541985,-89.557251,-13.259542
1.634521,0.839600,-2.000000,-25.885496,-136.015274,-29.122137
1.414795,0.981934,-1.137939,-28.442749,-165.877869,-21.709923
1.216309,1.084229,0.047852,-10.320611,-164.549622,11.503817
1.023926,1.104492,1.166992,6.770992,-158.961838,38.496181
0.783691,1.162598,1.984314,33.076336,-141.977097,53.786259
0.161621,0.715820,1.984314,5.343512,-155.954193,120.503815
0.551758,1.681152,1.984314,-5.198473,-140.938934,167.458008
0.172363,1.075439,1.984314,6.763359,-115.648857,103.992363
0.339111,0.290039,1.984314,6.183206,-77.778625,98.259544
0.742676,0.196045,1.984314,38.381680,5.183206,93.755722
0.892578,-0.005371,1.984314,46.198475,112.213737,79.412216
1.287598,-0.268799,1.984314,5.038168,229.320618,126.832062
1.411865,-0.369873,1.984314,15.870229,235.312973,37.679390
1.131348,-0.240479,1.905029,8.358779,143.740463,16.083969
1.134521,-0.227051,0.423584,-2.824427,72.274811,-5.297710
0.925049,-0.615723,-0.167969,-0.618321,48.366413,-16.786259
0.863037,-1.075439,-0.909424,4.519084,16.442749,-19.748091
1.324951,-0.950928,-1.909912,23.320610,-55.000000,-25.946566
1.984314,-0.743652,-2.000000,24.511450,-119.572517,-36.305344
1.984314,-0.325928,-2.000000,-7.694656,-156.801529,-68.847328
1.984314,-0.009033,-2.000000,-42.496181,-193.022903,-102.328247
1.984314,0.028809,-2.000000,-79.977097,-175.748093,-64.954201
1.984314,0.290283,-2.000000,-67.885498,-137.557251,-44.625954
1.984314,0.690186,-1.511475,-37.190838,-84.969467,-59.908398
1.984314,0.965088,-0.571777,-4.793893,-38.152672,-56.038166
1.984314,1.312012,0.306885,28.351145,4.274809,-38.465649
1.626709,1.531250,1.116943,58.343510,25.770992,-28.251909
0.987549,1.478516,1.802734,76.206108,19.083969,-26.396946
0.520020,1.621094,1.984314,89.801529,3.328244,-38.702290
0.242187,1.534668,1.984314,82.847328,48.244274,-59.496181
-0.161865,1.101807,1.984314,59.572517,124.267174,-66.183205
-0.625732,0.513428,1.984314,46.465649,149.862595,-56.793892
-0.719727,0.029541,1.984314,46.931297,148.198471,-29.083969
-0.539795,-0.267822,1.984314,13.641221,214.587784,-44.801525
-0.814209,-0.767334,1.836426,36.809162,178.702286,-28.305344
-0.598877,-1.008789,1.055908,20.503817,158.358780,-17.282442
-0.341553,-1.125244,-0.074951,9.923664,130.358780,-15.893129
0.005127,-1.173096,-1.011475,2.244275,99.908394,-21.969465
0.364990,-1.182373,-1.933838,-10.541985,75.709923,-26.664122
0.732178,-1.118408,-2.000000,-18.580153,52.938931,-30.541985
1.012695,-1.013916,-2.000000,-20.297710,24.748091,-38.870228
1.170410,-0.896484,-2.000000,-15.816793,24.572519,-46.725189
1.212402,-0.704102,-2.000000,-6.931298,11.893129,-41.099236
1.264893,-0.325684,-2.000000,6.908397,-4.305344,-26.900763
1.299316,0.097168,-2.000000,20.755726,-25.984734,-21.694656
1.279053,0.506592,-2.000000,24.610687,-52.969467,-24.778625
1.176758,0.785156,-2.000000,17.694656,-68.328247,-27.145039
0.968262,0.952148,-1.387451,13.763359,-61.290077,-24.854961
0.666016,1.104980,-0.332764,19.564886,-50.381680,-15.404580
0.334717,1.267090,0.758789,40.213741,-55.328243,-7.305344
0.068848,1.472168,1.687012,55.618320,-57.427483,-0.885496
-0.146484,1.523438,1.984314,44.358780,-69.778625,-1.778626
-0.342529,1.378662,1.984314,12.908397,-63.725189,0.381679
-0.541748,1.135254,1.984314,-18.389313,-37.786259,11.702291
-0.712891,0.736572,1.984314,-15.854961,-13.267176,18.809160
-1.045166,0.309326,1.984314,-34.305344,-14.137404,49.419846
-1.151855,0.044434,1.984314,-21.022902,9.885496,125.564888
-1.097168,-0.032959,1.984314,-41.290077,-0.877863,184.374039
-0.623291,-0.239502,1.984314,-45.885498,-10.053435,215.709930
-0.539062,-0.194336,1.984314,-69.427483,-29.236641,248.175568
0.119141,-0.335205,1.984314,-49.000000,-139.320618,248.175568
1.601807,-0.909424,0.875977,27.404581,-37.618320,224.496185
1.984314,-1.823242,0.520752,-22.946566,248.175568,248.175568
1.984314,-1.615479,-0.974365,-65.213737,248.175568,72.366409
1.984314,-1.770508,-2.000000,-55.610687,227.763351,-66.068703
1.984314,-0.041992,-2.000000,-57.450382,-64.916031,-71.664124
1.984314,-0.229004,-2.000000,-99.038170,-53.221375,-65.572517
