ax,ay,az,gx,gy,gz
0.925293,1.710205,0.703369,15.763359,-95.458015,-6.702290
0.406250,-0.696289,-1.550781,-66.083969,26.137405,3.381679
0.524170,1.318604,1.427734,9.045801,-65.580154,-6.343512
-0.315918,1.094482,1.984314,31.778625,12.702291,14.877863
0.013428,1.163818,1.984314,37.603054,-28.793894,12.687023
0.425537,0.688965,0.138428,-15.053435,-95.572517,7.572519
-0.290039,0.097900,0.697754,-28.809160,65.702293,17.206106
0.708252,0.715820,1.078857,-7.664122,-65.137405,4.442748
-0.336426,0.697998,1.353271,13.129771,16.091602,23.229008
-0.266602,0.217285,0.953613,-20.923664,25.893129,43.091602
0.032227,0.122070,0.940430,-26.244274,15.480916,42.877861
0.042725,0.139893,1.003418,-16.076336,5.694656,45.366413
-0.042236,0.239746,1.213379,4.656488,-2.442748,50.709923
-0.015869,0.404541,1.294678,33.526718,-36.450382,51.206108
0.195557,0.353271,0.928955,46.396946,-81.702293,47.450382
0.165771,0.166992,0.765625,43.213741,-62.083969,49.862595
0.099121,0.449951,1.200195,68.061066,-73.129768,45.458015
0.173584,0.365723,0.760986,56.091602,-97.152672,46.312977
0.118408,0.390869,0.984375,73.045799,-93.801529,56.000000
0.367188,0.302002,0.677002,43.045803,-129.847336,49.625954
0.510986,0.149170,0.437500,37.083969,-129.740463,52.030533
0.624023,0.818115,1.391846,85.671753,-168.961838,38.732826
0.292480,-0.234375,-0.823486,13.969465,-186.099243,49.679390
0.408691,-0.335693,-0.608398,12.129771,-131.938934,39.786259
1.125488,-0.058105,-2.000000,62.877861,-249.000000,29.984734
0.475342,1.558105,1.984314,137.618317,-140.961838,47.625954
1.104248,-0.305908,-2.000000,28.854961,-250.137405,36.076336
-0.076660,0.750977,1.984314,0.732824,-109.473282,44.343510
0.855469,1.608154,1.984314,64.694656,-144.679382,23.106871
1.691406,1.494873,1.984314,77.076332,-175.000000,1.236641
1.979736,1.371094,1.111572,75.740456,-161.770996,-8.038168
1.938232,1.400146,1.036621,66.587784,-115.786263,-5.755725
-0.090332,0.910156,1.984314,46.977100,-13.877863,7.610687
-0.128418,0.587158,1.984314,51.274811,44.045803,19.832062
0.100098,0.216797,1.573486,53.290077,84.229004,21.198473
0.715576,-0.046387,-0.937988,21.442749,112.106873,12.679389
1.476563,-0.028320,-2.000000,-6.763359,92.931297,-8.717557
1.960449,0.454834,-2.000000,-7.381680,22.961832,-33.206108
1.750977,0.247070,-2.000000,-12.946565,28.091602,-35.015266
-0.208984,0.146484,1.312012,52.053436,121.381676,-20.160305
1.573975,0.552490,-1.478516,-19.625954,-9.282443,-41.412212
1.195801,1.339355,0.960693,17.954199,-66.793892,-61.091602
1.148438,1.110840,0.291504,6.320611,-49.519085,-70.137405
0.713867,0.138916,-1.087646,-9.885496,68.305344,-73.282440
0.187500,0.716309,1.450195,74.244278,92.938934,-84.526718
0.607666,0.233887,-0.661377,9.374045,36.793892,-58.503819
0.622070,1.091309,0.976562,61.229008,16.450382,-76.267174
-0.056152,0.814697,0.673096,52.931297,36.122139,-71.961830
0.084961,0.673096,0.608887,16.900763,40.061069,-71.862595
0.179932,0.730957,0.568115,-18.824427,28.671755,-74.625954
0.308350,0.892090,0.725586,-48.106869,10.801527,-74.877861
0.494629,1.002197,0.659912,-74.587784,-12.725191,-80.427483
0.629639,0.806396,0.260986,-107.839691,-12.274809,-79.351143
0.412354,0.454346,0.206787,-124.603050,41.000000,-75.625954
0.328125,0.642334,0.536865,-105.450378,30.083969,-85.610687
0.371582,0.561523,0.189941,-114.984734,12.396947,-75.000000
0.218750,0.612549,0.533691,-102.435112,26.122137,-78.770996
0.443604,0.667969,0.293945,-126.450378,-13.961832,-77.908394
0.595215,0.573486,0.123779,-141.450378,-21.351145,-78.916031
-0.075195,0.927979,1.565918,-97.534348,12.961832,-84.877861
0.812256,0.584473,-0.222412,-141.137405,-74.870232,-80.824425
0.855469,0.301514,-1.217529,-145.961838,-56.068703,-83.404579
0.643799,1.240234,1.231934,-71.839691,-95.839691,-94.824425
-0.964600,-0.197510,1.818604,-111.076332,99.496185,-55.992367
0.797363,1.134033,0.508057,-83.198471,-112.152672,-85.603050
0.640137,-0.650146,-2.000000,-162.381683,-35.282444,-59.801525
-0.555176,-0.894043,-0.286865,-150.961838,43.595421,-39.290077
-1.027344,-0.682861,1.751709,-136.694656,56.603054,-27.091602
-1.103027,-0.703369,1.984314,-142.526718,60.664124,-12.000000
-1.003906,-0.937744,1.605225,-151.404587,65.610687,1.000000
-0.691406,-1.313721,0.125000,-155.709930,59.618320,12.816793
-0.093994,-1.518799,-1.697266,-148.503815,26.633587,22.022902
0.640625,-1.287354,-2.000000,-115.015266,-39.045803,23.809160
1.173340,-0.408203,-2.000000,-50.374046,-129.213745,15.984733
1.157715,0.790039,-1.279297,5.213740,-167.076340,9.732824
0.494385,1.537598,1.719238,34.832062,-148.068695,11.671756
0.540771,1.548096,1.946533,33.106869,-169.641220,11.541985
0.961182,-0.460449,-2.000000,-61.732826,-154.236649,29.022902
0.270508,1.509766,1.984314,18.832062,-122.435112,23.152672
-0.337158,0.647705,1.984314,-26.770992,-14.068703,44.717556
-0.064209,0.779785,1.984314,-30.328245,-23.335878,37.877861
0.687988,0.999023,1.255127,-29.740458,-130.145035,23.442749
0.071289,-0.458252,-0.550781,-87.610687,-54.137405,50.022900
0.617920,0.744873,1.248291,2.847328,-116.801529,20.870230
-0.286133,0.016113,0.571777,-4.198473,-80.908394,39.709923
0.392822,-0.086182,0.382324,3.221374,-130.458008,30.587786
0.796143,0.144531,0.498047,23.763359,-167.312973,12.061069
1.012939,0.275635,0.756836,33.419846,-168.664124,2.847328
1.098877,0.310303,1.039795,35.664124,-128.312973,-3.267176
1.061523,0.409180,1.426758,42.106869,-68.442749,-13.442748
1.122803,0.664551,1.532227,51.045803,-51.091602,-29.167938
1.150391,0.585693,1.073486,36.305344,-39.419846,-26.633587
0.792236,0.299805,1.073486,27.244274,27.618320,-12.541985
0.768799,0.481445,1.228760,38.351147,2.503817,-14.732824
0.688232,0.295898,0.969482,36.435116,26.091602,13.969465
0.781006,0.638428,1.258057,70.267174,8.374045,-9.824428
0.830566,0.826660,1.260986,85.709923,7.984733,-29.854961
0.083496,0.046875,1.100098,65.450378,83.198471,-15.694656
1.123779,1.316406,1.984314,132.381683,8.725191,-50.229008
1.070557,1.454834,1.062256,123.396950,-60.152672,-51.885498
0.378174,1.748779,1.984314,101.862595,50.938931,-42.175571
0.289063,-0.546631,-0.274414,-11.137404,70.526718,-27.473282
0.889648,1.839600,1.984314,78.274811,39.335876,-46.893131
1.838135,0.175781,-2.000000,27.610687,-50.335876,-60.320610
0.695801,-0.727051,-1.547607,-22.000000,7.198473,-50.725189
-0.094482,-0.573486,0.402344,-39.580154,55.022900,-44.061069
-0.313232,-0.494141,1.116211,-48.992367,65.938934,-42.801525
-0.203125,-0.657471,0.783936,-50.343510,52.351147,-44.503819
0.187744,-0.919922,-0.300781,-31.473282,20.496183,-50.541985
0.812988,-0.981934,-1.753174,7.206107,-14.496183,-60.305344
1.479492,-0.615967,-2.000000,49.511452,-45.190838,-66.595421
1.886963,0.230957,-2.000000,78.374046,-52.374046,-66.801529
1.801025,1.312988,-0.942871,82.236641,-22.145039,-64.694656
-0.706787,0.812744,1.984314,38.847328,63.625954,-55.877861
-0.582275,1.060059,1.984314,-7.267176,67.389313,-60.870228
1.337158,1.691162,0.596924,-100.244278,-37.885498,-72.000000
-0.540039,0.700684,1.984314,-99.183205,114.580154,-51.587788
-0.199951,-0.072266,-0.127930,-174.801529,150.946564,-40.488548
-0.359131,0.243164,0.498535,-183.343506,119.259544,-51.740459
-0.083984,1.284668,1.890381,-177.916031,-4.381680,-75.435112
0.343750,0.393311,-0.354004,-250.137405,-35.938931,-56.709923
-0.125488,0.736572,1.327637,-218.503815,-15.427481,-73.122139
-0.186768,-0.236328,-0.099609,-250.137405,0.725191,-47.763359
0.506592,-0.115234,0.147949,-250.137405,-35.847328,-58.290077
0.444580,-0.067871,0.263184,-241.419846,-58.503819,-62.534351
0.423828,-0.110840,0.306641,-223.312973,-65.801529,-62.519085
0.370117,-0.220703,0.338135,-214.351151,-61.687023,-58.488548
0.233154,-0.351318,0.555420,-208.938934,-34.083969,-51.320610
0.194824,-0.237305,0.924072,-190.641220,-34.351147,-50.839695
0.411865,-0.143311,0.729736,-177.099243,-66.435112,-48.480915
0.267334,-0.524414,0.621582,-171.137405,-21.068703,-25.725191
0.229492,-0.371094,0.982422,-140.244278,-31.946566,-28.847328
0.281494,-0.458740,0.697266,-135.854965,-33.000000,-8.816793
0.118164,-0.367188,0.970459,-97.923668,-25.251909,-13.610687
0.024658,-0.159912,1.245117,-53.335876,-28.832062,-6.671756
0.067871,-0.822510,0.194336,-63.381680,5.824428,11.740458
-0.099609,0.521973,1.984314,28.778625,1.122137,-13.022901
-0.139648,0.987305,1.984314,39.679390,-43.145039,-11.816793
-0.867432,0.122070,1.984314,0.618321,63.603054,6.748092
0.800293,-0.572266,-2.000000,-73.015266,-30.732824,-3.358779
-1.009766,0.604736,1.984314,26.541985,19.137405,-9.167939
0.813232,1.100586,0.293457,12.251908,-145.923660,-24.091602
1.089355,-0.325928,-2.000000,-22.175573,-122.366409,-15.022901
0.732666,-1.243408,-2.000000,-27.679390,-88.068703,-10.946565
0.617187,-1.707031,-2.000000,-15.427481,-86.664124,-6.740458
0.812988,-1.611816,-2.000000,13.938931,-96.465652,-0.183206
1.178467,-1.277588,-2.000000,39.916031,-124.053436,-1.000000
1.561279,-0.877686,-2.000000,65.709923,-147.916031,-2.687023
1.677734,-0.317627,-2.000000,111.473282,-171.832062,1.839695
1.401611,0.289307,-0.083740,174.152664,-175.381683,16.160305
0.685791,0.659180,1.984314,232.954193,-148.854965,31.893129
-0.166260,0.641357,1.984314,248.175568,-117.442749,44.251907
0.093994,0.807373,1.984314,248.175568,-159.641220,42.488548
1.984314,-0.235840,-1.528076,203.427475,-250.137405,38.389313
0.392578,0.354736,1.984314,239.961838,-102.274811,57.938931
0.546875,-0.565186,1.462402,205.389313,-25.541985,74.190842
0.793945,-0.068359,1.704834,222.419846,-0.396947,94.015266
1.538086,1.208496,1.984314,235.328247,-55.954197,76.793892
1.738525,0.315674,-0.005615,148.236649,-71.129768,65.748093
1.347412,1.166504,1.984314,197.847336,12.137404,22.671755
1.123047,0.207275,0.624268,164.541992,22.366413,29.145039
1.775879,0.621338,0.581787,171.900757,8.770992,8.419847
1.522949,0.948730,0.255371,156.595413,28.083969,1.755725
1.269775,0.986328,0.144775,121.427483,58.725189,1.465649
0.999023,0.775391,0.136963,80.114502,89.068703,6.442748
0.673340,0.505371,0.239014,42.885498,109.801529,15.641221
0.447510,0.550781,0.556396,34.816795,91.137405,6.030534
0.563721,0.630127,0.452148,36.702290,24.114504,-7.068702
0.548096,0.213135,0.199707,34.465649,19.412214,2.122137
0.500732,0.315430,0.701660,68.709923,23.175573,-2.511450
0.655518,0.354004,0.282227,60.106869,-9.099236,6.702290
0.463867,0.311768,0.647217,62.290077,32.786259,6.465649
0.335693,0.320557,0.969238,52.061069,34.625954,13.877863
0.827881,-0.371582,-0.242676,15.137404,-4.068702,24.007633
0.375977,0.520996,1.984314,67.923668,80.022903,15.702291
0.418945,1.013428,1.984314,84.793892,59.030533,13.877863
0.112793,-0.135254,1.792725,26.694656,120.488548,21.725191
1.870361,-0.113525,-2.000000,39.694656,-64.595421,-6.312977
-0.328613,0.211914,1.984314,18.297710,141.946564,29.030535
0.920654,1.595215,1.984314,93.709923,5.015267,7.541985
1.951172,0.828125,-1.616455,73.312981,-95.702293,-12.213740
1.984314,0.174072,-2.000000,40.045803,-113.580154,-22.709923
1.984314,-0.107910,-2.000000,31.610687,-109.541985,-29.137405
1.984314,-0.041260,-2.000000,51.679390,-99.030533,-29.038168
1.984314,0.306396,-1.935059,103.442749,-72.969467,-23.396946
1.984314,0.814209,-0.273438,157.488556,-24.580153,-14.969465
1.415527,1.201172,1.898193,196.839691,46.572517,-2.213740
0.466797,1.303223,1.984314,203.793900,113.694656,11.618320
-0.323975,0.862305,1.984314,184.702286,154.572525,22.809160
-0.642822,-0.001953,1.984314,141.923660,147.061066,37.022900
-0.586182,-0.036377,1.946533,117.541985,143.938934,63.549618
0.763916,1.701904,1.914307,198.160309,42.839695,44.969467
0.511475,-0.304688,-0.307617,128.290070,70.152672,18.885496
1.569092,0.243408,-2.000000,158.656494,-46.954197,-27.648855
1.725830,1.822266,-1.363770,123.625954,-34.274811,-44.885498
1.063477,1.457031,-1.621826,28.175573,89.129768,-49.801525
0.747559,1.984314,0.934814,-60.244274,64.007637,-66.580154
0.966553,1.716797,-1.651123,-250.137405,58.557251,-26.625954
0.810791,1.970703,0.290527,-250.137405,31.786259,-37.412212
-0.008301,0.821289,0.078613,-250.137405,63.511452,-27.274809
0.115723,0.068604,0.100830,-250.137405,58.488548,-26.282442
0.201172,-0.183350,0.215088,-250.137405,36.419846,-39.335876
0.203857,-0.039551,0.601318,-250.137405,13.259542,-62.458015
0.269531,0.283936,1.070313,-208.022903,-25.022902,-81.076332
0.566162,0.549561,1.141113,-202.030533,-62.305344,-96.786263
0.760010,0.359619,0.880615,-225.519089,-44.251907,-95.244278
0.595215,0.091553,1.244385,-219.221375,26.992367,-87.465652
0.643311,0.210205,1.190674,-191.778625,27.351145,-84.625954
0.389648,0.031982,0.756104,-171.374039,78.221375,-72.832062
0.146729,0.369385,1.093750,-125.083969,61.847328,-93.549622
-0.152344,0.508057,1.276855,-94.870232,34.206108,-98.381676
-0.183350,-0.422852,-0.007568,-123.740456,41.038166,-77.885498
-0.198486,0.546875,1.984314,-47.190838,4.450382,-95.343513
-0.264160,0.661133,1.984314,-29.946566,-30.473282,-82.656487
-0.464355,-0.717773,1.397461,-53.648853,93.809158,-52.954197
1.352051,-0.161865,-1.622314,-45.328243,-52.198475,-67.389313
-0.883301,-0.486572,1.984314,19.320610,120.595421,-33.847328
0.052002,1.182129,1.984314,90.404579,-44.679390,-50.068703
1.187012,0.454590,-0.502930,64.450378,-102.885498,-43.488548
1.434082,-0.457275,-2.000000,63.847328,-94.946564,-31.160305
1.538330,-0.719727,-2.000000,85.938934,-90.656487,-22.160305
1.710205,-0.362061,-2.000000,104.297707,-90.893127,-12.366412
1.865479,0.414795,-2.000000,93.641220,-90.076332,1.496183
1.860840,1.209473,-0.944580,66.732826,-86.160309,6.961832
1.443359,1.625000,0.952148,25.893129,-70.114502,7.534351
0.640381,1.504639,1.984314,-6.687023,-12.068703,18.305344
-0.210937,1.073242,1.984314,-32.519085,40.366413,33.045803
-0.710449,0.357666,1.984314,-61.954197,73.687019,48.839695
-0.488770,0.625977,1.984314,-58.755726,50.435116,58.160305
1.554932,0.763428,-0.193604,-87.129768,-105.931297,42.114502
-0.250488,0.452881,1.984314,-88.000000,62.496181,62.259541
-0.024902,-0.529053,0.725586,-143.916031,71.969467,59.297710
0.065918,-0.343018,1.437012,-125.610687,44.526718,43.305344
0.821045,0.435547,1.984314,-68.946564,-77.122139,19.824427
0.841553,-0.842041,-0.200439,-106.725189,-79.221375,36.427483
0.911133,0.458008,1.763184,-0.893130,-38.816795,15.404580
0.316650,0.004150,0.504883,-20.786259,6.786260,38.763359
0.934814,0.317383,0.218994,-46.587788,-10.061069,23.511450
0.948486,0.389893,0.111816,-80.923668,-35.610687,-0.412214
0.869385,0.057373,0.333496,-118.152672,-49.320610,-15.946565
0.778809,-0.423096,0.876221,-107.083969,-38.022900,-21.664122
0.636963,-0.468018,1.103027,-68.519081,-23.534351,-19.496183
0.719727,0.098145,1.283447,-36.793892,-21.633587,-16.488550
0.794434,0.252441,0.746094,-48.053436,-28.557251,-8.755725
0.492187,0.142822,0.712158,-62.755726,17.175573,-8.648855
0.570557,0.478516,0.915527,-58.687023,-22.709923,-26.946566
0.421875,0.123779,0.699219,-90.755722,-16.893129,-13.267176
0.600586,0.323242,1.132080,-69.000000,-50.709923,-29.389313
0.762207,0.458496,1.301514,-56.007633,-65.839691,-24.015266
0.029785,-0.119629,1.403564,-57.778625,26.091602,-2.824427
1.250977,0.805176,1.859131,5.366412,-59.152672,-21.938931
1.072510,0.670166,0.422607,4.572519,-100.328247,-16.877863
0.574951,1.295654,1.984314,43.770992,-31.229008,-14.381680
-0.307617,-0.656006,1.051270,-39.229008,74.694656,13.213740
1.371826,1.229980,1.101563,55.076336,-97.839691,-20.931297
1.209961,-0.849854,-2.000000,-12.519084,-76.763359,-13.916031
-0.121826,-0.738037,1.393799,8.519084,44.335876,-2.595420
-0.466553,0.012207,1.984314,80.732826,84.396950,-7.793893
-0.493652,0.392334,1.984314,151.541992,93.053436,-12.488549
-0.570068,0.448486,1.984314,193.603058,100.816795,-11.893129
-0.700439,0.309570,1.984314,194.969467,100.015266,-9.473283
-0.677246,-0.052979,1.984314,167.954193,86.000000,-8.870229
-0.315430,-0.495605,0.944824,133.786255,49.748093,-10.870229
0.446045,-0.721191,-1.103516,116.297707,-5.198473,-17.595419
1.316895,-0.594482,-2.000000,122.335876,-49.679390,-26.213741
1.899414,0.035889,-2.000000,159.625961,-67.076332,-29.190840
1.718994,0.007813,-2.000000,147.809158,-65.083969,-21.251909
-0.261475,-0.192627,0.702148,63.213741,101.564888,16.251909
1.456055,0.741211,-1.106934,104.297707,-61.671757,-13.893129
0.782471,1.298584,1.550537,107.473282,0.091603,-7.679389
0.834473,0.914795,1.094482,92.824425,-30.458015,-5.702290
0.810791,-0.173096,-0.744385,38.305344,-64.763359,6.061069
0.102783,-0.140625,0.738770,33.923664,78.106873,19.374046
1.068848,0.340332,-0.011230,31.343512,-53.053436,12.450381
0.344727,0.770508,0.919922,7.198473,21.022902,26.969465
0.333984,0.071533,0.045898,-75.236641,27.954199,48.465649
0.635498,-0.072266,0.062500,-125.083969,13.236641,46.679390
0.683594,-0.164062,0.248047,-140.839691,-4.946565,42.969467
0.621582,-0.210693,0.486816,-134.221375,-5.664122,36.732826
0.564941,0.050537,0.828857,-118.587784,-10.595420,26.923664
0.718994,0.391113,0.984131,-98.633591,-47.946564,16.015266
0.828125,0.192627,0.736328,-95.824425,-47.167938,18.381680
0.589111,-0.010498,0.903320,-69.839691,-1.809160,11.129771
0.695557,0.211426,0.984863,-40.236641,-32.335876,-0.320611
0.521973,-0.047852,0.689453,-25.793894,-9.809160,4.488550
0.583252,0.266602,1.030273,7.167939,-45.000000,-11.312977
0.573486,0.459717,1.023682,24.000000,-53.984734,-8.618320
-0.051270,-0.383545,0.387207,9.137404,36.221375,14.404580
0.573975,0.954834,1.984314,71.809158,-55.328243,-6.938931
0.349365,1.223633,1.804688,80.793892,-119.748093,-7.824428
-0.439453,0.841797,1.984314,90.045799,-37.190838,-1.938931
0.895264,-0.646729,-2.000000,-10.648855,-23.076336,5.297710
-0.239258,1.240234,1.984314,70.938934,-75.809158,-5.473282
1.541016,0.976562,-0.589111,-5.030534,-137.358780,-0.427481
1.421387,-0.391846,-2.000000,-48.839695,-30.305344,20.549618
0.716064,-0.834717,-2.000000,-64.870232,24.984734,39.648853
0.466064,-0.916016,-2.000000,-59.648853,10.564885,51.099236
0.693359,-0.849365,-2.000000,-47.221375,-33.083969,42.320610
1.259766,-0.691895,-2.000000,-54.740459,-92.908394,26.709923
1.801758,-0.414307,-2.000000,-48.870228,-130.412216,17.122137
1.971680,0.239014,-2.000000,-40.748093,-146.992371,27.977098
1.635498,1.068848,-0.670166,-35.740459,-153.274811,41.038166
0.854980,1.453613,1.847656,-29.389313,-142.511444,58.572517
-0.021240,1.115479,1.984314,-15.427481,-103.755722,76.061066
0.169922,0.988770,1.984314,1.977099,-119.549622,61.732826
1.984314,0.467773,-0.842285,-33.877861,-217.839691,38.213741
0.525879,0.072754,1.984314,23.671755,-86.358780,59.290077
1.476807,-0.821533,0.903564,-18.885496,-28.770992,59.206108
1.723877,-0.586426,1.104980,-2.854962,20.083969,41.038166
1.517090,0.303223,1.984314,52.877861,17.427481,17.877863
1.984314,0.375732,0.365479,29.610687,-89.519081,-4.847328
0.878662,0.268799,0.812012,42.137405,61.000000,-0.175573
1.618652,0.147217,0.187744,11.496183,-34.366413,-3.183206
1.573975,0.606934,0.570068,50.549618,-55.717556,-12.229008
1.315186,0.638916,0.729004,63.893131,-47.022900,-11.885496
1.345703,0.676758,0.779785,62.206108,-26.908398,-18.488550
1.429443,0.706543,0.533447,49.893131,-18.633587,-25.145039
1.463379,0.496338,0.263672,20.595419,5.709924,-25.175573
1.271973,0.144775,0.299316,-0.259542,61.610687,-16.305344
1.081543,0.218506,0.696777,23.885496,72.992363,-20.312977
1.230469,0.283203,0.522217,37.961834,40.770992,-19.618320
1.131592,0.128174,0.491699,38.198475,71.687019,-12.022901
1.320313,0.427734,0.814697,48.832062,49.541985,-29.282442
1.239258,0.186523,0.509277,17.358778,98.870232,-27.534351
1.119385,0.046875,0.415771,3.961832,128.587784,-28.885496
1.716309,0.690918,0.458740,20.641222,60.961834,-53.519085
0.639648,-0.298584,-0.779053,-43.160305,148.015274,-33.854961
0.582275,-0.464844,-0.044189,-54.381680,202.091599,-36.488548
1.282471,-0.528076,-2.000000,-79.076332,82.282440,-47.335876
0.911377,1.354248,1.984314,7.335878,69.114502,-51.167938
0.788330,-0.913330,-2.000000,-97.625954,94.480919,-37.847328
-0.541748,0.347412,1.984314,-40.854961,185.480911,-25.778625
0.358643,1.307861,1.984314,6.580153,94.702293,-40.351147
1.103760,1.129639,0.723633,8.427481,25.419847,-46.549618
1.339355,1.010742,-0.409668,0.740458,-5.618320,-44.748093
1.324463,1.061279,-0.351807,-2.809160,-18.045801,-40.610687
1.124023,1.238770,0.606201,0.183206,5.091603,-33.320610
0.677734,1.357666,1.984314,-2.435115,35.458015,-25.320610
0.031494,1.276611,1.984314,-10.908397,80.625954,-14.458015
-0.627930,0.900146,1.984314,-28.221375,115.824425,-3.458015
-1.002441,0.173096,1.984314,-45.977100,119.015266,2.847328
-0.915283,-0.581299,1.984314,-59.190838,83.778625,1.473282
-0.824463,-0.447266,1.984314,-47.076336,88.633591,5.427481
0.572998,1.201416,1.984314,37.702290,-20.847328,-14.633588
-0.361816,-0.745117,0.526855,-49.595421,76.725189,9.778625
0.444092,-0.885010,-1.631104,-55.938931,-8.320611,0.618321
0.179932,-0.790039,-1.060547,-54.786259,10.442748,7.503817
-0.167480,0.015137,1.208740,-10.076336,77.473282,10.717557
0.740967,0.455811,0.430176,20.320610,-74.625954,-1.473282
-0.281982,-0.214844,0.561523,-10.763359,20.488550,22.946566
0.651855,-0.236572,-0.096191,-12.312977,-63.351147,17.809160
0.749512,0.273193,0.495850,24.305344,-61.374046,11.083969
0.359375,0.276123,0.522705,32.847328,-38.679390,25.526718
0.196289,0.170410,0.387451,37.053436,-28.198473,41.793892
0.130859,0.050293,0.181885,49.076336,-47.312977,57.946564
0.069336,-0.048584,-0.027588,58.541985,-70.213737,73.778625
-0.086426,0.100342,-0.001221,68.458015,-59.488548,77.633591
-0.199707,0.494629,0.256104,76.343513,-70.335876,66.419846
-0.157227,0.507324,0.172852,42.435116,-123.717560,71.312981
-0.224365,0.281250,0.152588,-8.778625,-132.274811,106.251907
0.267822,0.372314,0.657471,-14.038168,-220.137405,115.564888
0.620605,-0.045898,0.491699,-36.374046,-224.030533,116.480919
1.127441,-0.283936,0.652100,-22.145039,-248.000000,96.450378
1.984314,0.463867,1.084229,-2.946565,-250.137405,54.755726
1.984314,-0.789062,-0.268311,-56.572517,-250.137405,55.679390
1.984314,-1.185791,0.210205,-57.045803,-166.374039,59.671757
1.984314,-0.909912,-1.180664,-67.374046,-170.687027,40.862595
1.984314,0.463135,1.984314,35.328243,-76.458015,1.725191
1.984314,-1.130371,-1.991455,-19.961832,118.732826,-36.900764
1.064209,-0.584473,1.964600,74.694656,221.183212,-28.198473
0.862549,1.188721,1.984314,128.221375,131.992371,-24.351145
1.546875,1.727783,1.984314,92.259544,93.961830,-36.541985
1.838379,1.738037,1.984314,45.595421,57.091602,-68.862595
1.526611,1.558350,1.984314,38.923664,72.129768,-105.549622
0.733887,1.314697,1.984314,60.793892,114.587784,-96.984734
-0.079834,1.181885,1.984314,84.343513,156.916031,-56.290077
-0.660156,0.907959,1.984314,92.900764,191.160309,-26.877863
-0.875732,0.466309,1.984314,59.610687,203.297714,-23.541985
-0.641846,-0.059814,1.338135,-0.374046,167.213745,-37.312977
0.031738,-0.479004,-1.046875,-53.732826,113.541985,-51.839695
-0.050049,-0.600830,-0.407471,-60.969467,114.091606,-48.358780
0.089111,1.213867,1.984314,15.076336,5.809160,-63.793892
0.307861,-0.942871,-0.947266,-61.282444,123.694656,-34.213741
1.015869,-0.580811,-1.900635,-58.740459,45.755726,-37.267174
0.676758,-0.610352,-1.454102,-48.786259,74.618324,-23.145039
0.061768,-0.208984,0.568359,-1.557252,123.549622,-17.106871
0.978271,0.779297,0.840088,7.923664,-30.969465,-28.374046
-0.024414,-0.211426,-0.014648,-31.564886,72.198471,-9.908397
1.068848,0.093018,0.067627,-33.870228,-12.824428,-21.366413
0.905273,0.503906,0.661865,5.122138,-21.160305,-34.870228
0.705322,0.496094,0.866211,16.221375,-9.793893,-32.183205
0.766113,0.470703,0.932373,18.122137,-4.297710,-30.572519
0.937988,0.462891,0.847168,17.763359,-8.709924,-31.030535
1.043457,0.307861,0.623291,5.931298,3.755725,-26.839695
0.904785,0.081299,0.585937,-5.007634,55.633587,-19.374046
0.763672,0.280273,0.972168,10.175572,79.572517,-28.709923
0.875000,0.411621,0.743164,6.175572,40.877861,-32.832062
0.656982,0.187744,0.621338,-2.145038,73.786263,-27.290077
0.792725,0.412109,0.863770,0.183206,44.236641,-39.145039
0.688232,0.111816,0.444336,-29.984734,72.175575,-28.038168
0.592773,-0.075195,0.429199,-41.809162,96.717560,-26.793894
1.300781,0.489746,0.411133,-20.557251,15.778625,-48.030533
0.131836,-0.598389,-0.578369,-63.488548,107.954201,-22.580153
0.136719,-0.675049,0.387451,-42.519085,153.114502,-23.267176
0.842773,-0.881592,-1.992920,-55.061069,53.145039,-29.893129
0.962646,1.270264,1.787842,44.977100,-21.877863,-44.595421
0.342041,-0.839600,-1.323975,-51.175571,89.099236,-21.206106
-0.501709,0.894043,1.984314,12.770992,129.007629,-21.748091
0.660400,1.524658,1.984314,34.931297,25.656488,-38.595421
1.357422,1.112793,0.019287,14.938931,-27.679390,-44.145039
1.503906,0.833984,-1.069092,4.984733,-45.442749,-42.213741
1.466797,0.827148,-0.946289,10.595420,-51.732826,-37.648853
1.292725,1.093506,0.013916,23.091602,-46.687023,-32.809162
0.919678,1.346436,1.616699,39.091602,-19.122137,-23.839695
0.291260,1.376465,1.984314,44.236641,26.984734,-13.206107
-0.388916,1.169434,1.984314,30.297710,79.709923,-3.717557
-0.839111,0.520996,1.984314,1.954198,112.671753,4.763359
-0.846191,-0.260010,1.984314,-33.679390,93.290077,7.396946
-0.800293,-0.121826,1.984314,-30.480917,100.770996,14.931297
0.614990,1.456299,1.984314,44.984734,-17.236641,-4.557252
-0.386230,-0.502686,0.787842,-49.503819,77.885498,21.778625
0.458984,-0.751953,-1.313477,-57.748093,-12.770992,11.030535
0.272949,-0.685303,-0.658203,-52.519085,17.190840,15.969465
0.001953,0.168457,1.640625,2.969466,77.557251,14.160305
0.914307,0.628174,0.705322,26.412214,-66.206108,2.305344
-0.151367,0.053223,0.847168,2.114504,49.549618,21.793894
0.691162,0.011475,0.081543,-12.671756,-31.534351,18.175573
0.848389,0.503418,0.784912,22.816793,-45.877861,4.633588
0.570557,0.565430,0.899902,32.580154,-41.419846,7.816794
0.564697,0.531006,0.884277,27.778625,-37.778625,11.137404
0.628174,0.440918,0.714355,22.000000,-44.763359,15.091603
0.617920,0.227539,0.510742,5.923664,-36.381680,23.122137
0.420166,0.069580,0.619385,-4.358778,2.931298,30.717558
0.409912,0.347412,0.931152,14.725191,-1.229008,21.778625
0.523682,0.335449,0.524658,8.984733,-43.129772,24.587786
0.325195,0.149170,0.568359,8.290076,-5.893130,34.511452
0.503662,0.309814,0.698730,9.580153,-39.931297,32.114502
0.282471,0.026123,0.492187,-11.381680,-6.442748,41.793892
0.291260,-0.182861,0.365967,-11.954199,2.282443,46.343510
1.079834,0.506592,0.497314,-1.916031,-94.671753,32.916031
0.132812,-0.614502,-0.885010,-15.908397,9.053435,54.167938
0.302002,-0.700684,-0.386230,1.068702,44.358780,60.259541
1.133545,-0.415771,-2.000000,-33.076336,-28.755726,61.221375
0.292480,1.447021,1.984314,54.496181,-148.274811,40.320610
0.867920,-0.680420,-2.000000,-25.351145,-20.450382,65.519081
-0.760254,0.004883,1.984314,38.305344,-37.427483,68.961830
-0.278564,1.221680,1.984314,54.671757,-157.885498,55.946564
0.542969,1.535156,1.984314,44.748093,-217.847336,47.526718
0.988037,1.621338,1.984314,42.740459,-228.954193,44.229008
1.016113,1.663574,1.984314,34.061069,-206.442749,45.007633
0.669434,1.562744,1.984314,30.083969,-162.778625,47.702290
0.122559,1.238770,1.984314,28.099237,-108.076332,55.465649
-0.256592,0.641846,1.984314,22.687023,-55.916031,66.473282
-0.184326,-0.181152,1.984314,0.358779,-15.396947,73.198471
0.416748,-0.821533,1.014404,-24.847328,2.984733,71.167938
1.366943,-1.083496,-1.350830,-44.595421,-1.992366,63.679390
1.196045,-1.005615,-0.899170,-31.229008,34.274811,60.068703
0.462646,0.902344,1.984314,47.702290,-54.335876,35.114502
1.356201,-0.853271,-1.252930,-43.053436,13.251908,42.908398
1.972900,-0.263184,-1.382568,-39.259541,-85.923668,23.610687
1.702881,-0.404541,-1.237305,-37.816795,-49.870228,18.687023
0.944092,-0.411133,0.225098,-1.954198,51.167938,12.282443
1.509521,0.771484,1.329346,42.381680,-59.022900,-11.793893
0.638428,-0.348145,-0.319580,-11.000000,33.610687,10.488549
1.548584,0.216797,0.421387,4.435114,-39.893131,-10.496183
0.976807,0.512695,0.693359,35.435116,-40.053436,-18.351145
0.858643,0.433350,0.910400,34.328243,-24.450382,-16.793894
1.010986,0.467529,0.943359,37.526718,-19.610687,-26.954199
1.199707,0.596680,0.836182,34.022900,-9.290076,-41.015266
1.293213,0.573486,0.478760,9.793893,8.206107,-45.526718
1.112305,0.247314,0.150391,-25.801527,60.282444,-35.732826
0.732422,0.094971,0.436768,-26.564886,101.396950,-32.824429
0.755127,0.246094,0.436279,-4.977099,49.106869,-34.618320
0.651123,0.007568,0.208252,6.480916,44.648853,-21.931297
0.794678,0.331055,0.622803,46.167938,19.290077,-41.206108
0.992920,0.262695,0.256348,18.503817,17.198473,-38.175571
1.129395,0.152344,0.053223,9.122137,38.213741,-46.549618
1.337402,1.023193,1.075684,41.083969,7.526718,-67.099236
1.051025,-0.063721,-1.297119,-50.618320,26.748091,-47.366413
1.090820,-0.440430,-1.348633,-74.267174,85.374046,-48.862595
1.740967,0.165771,-1.790771,-58.656490,-21.244274,-58.694656
0.257568,1.101807,1.984314,6.244275,86.480919,-39.000000
1.617676,-0.551514,-2.000000,-74.786263,7.328244,-43.954197
-0.247559,-0.430908,1.802979,-48.541985,154.770996,-21.694656
-0.075928,0.915283,1.984314,23.931297,106.290077,-30.885496
0.680664,1.299561,1.984314,54.213741,44.694656,-43.351147
1.053223,1.365967,1.984314,60.969467,22.923664,-48.175571
1.068604,1.447754,1.984314,55.404579,28.030535,-47.221375
0.807617,1.520264,1.984314,47.190838,50.083969,-43.435116
0.336426,1.475342,1.984314,29.000000,104.610687,-33.465649
-0.194824,1.167480,1.984314,4.778626,140.106873,-26.297710
-0.540283,0.551514,1.984314,-20.671755,160.000000,-22.267176
-0.553711,-0.172607,1.984314,-46.603054,157.709930,-21.335878
-0.168701,-0.743652,1.039063,-61.778625,132.595413,-24.343512
-0.227539,-0.642090,1.285645,-50.526718,161.977097,-17.824427
0.458252,1.399658,1.984314,42.427483,91.679390,-34.854961
-0.041504,-0.706055,-0.190918,-43.534351,161.732819,-15.809160
0.683594,-0.554687,-1.714844,-43.595421,58.022900,-29.213741
0.413818,-0.498047,-1.123047,-46.320610,69.030533,-24.358778
0.033447,0.090088,1.154297,-15.755725,124.236641,-25.549618
1.077881,0.780273,0.880859,9.152672,-11.404580,-43.671757
0.011963,-0.087402,0.597656,-40.557251,103.076332,-15.977099
0.888672,0.021484,0.123291,-39.564884,41.725189,-20.992367
0.766357,0.513184,0.684814,0.351145,38.954197,-31.526718
0.374268,0.583496,0.790283,10.122137,36.908398,-25.870230
0.313721,0.550293,0.802002,9.022901,20.366413,-21.862595
0.417236,0.450928,0.642334,1.954198,-6.679389,-20.664122
0.478516,0.197021,0.463623,-15.641221,-3.931298,-13.503817
0.365967,0.073242,0.602051,-18.977098,37.732826,-5.511450
0.417969,0.352539,0.933838,7.427481,36.687023,-13.633588
0.479004,0.317139,0.509521,6.091603,10.885496,-6.648855
0.210937,0.250244,0.594727,13.351145,45.977100,-3.244275
0.322266,0.404053,0.622314,5.687023,3.923664,-6.961832
0.089600,0.160645,0.549561,-12.748092,29.671755,2.473282
0.000000,0.122559,0.976318,-17.045801,36.435116,7.633588
0.721436,-0.109131,-0.245605,-41.839695,-39.267174,2.793893
-0.252441,0.169922,1.532227,-26.190840,81.076332,16.564886
-0.172607,0.690674,1.984314,-9.893129,90.343513,17.404581
-0.525391,-0.289795,1.318115,-64.702293,84.000000,26.114504
0.827881,1.298828,1.271240,-14.183207,-117.618324,-5.351145
-0.062988,-0.935791,-0.877441,-49.519085,74.587784,27.358778
-0.530029,0.980713,1.984314,34.465649,-54.000000,3.297710
0.875488,1.365234,1.984314,11.488549,-138.824432,-9.076336
1.568115,0.755371,-0.614990,-16.091602,-113.251907,-6.259542
1.688965,0.398682,-1.732178,-20.709923,-77.992363,0.664122
1.640137,0.383057,-1.892578,-14.755725,-68.824425,6.931298
1.535645,0.638672,-1.383789,-2.625954,-85.839691,11.022901
1.356689,1.049805,-0.187988,15.625955,-116.076332,10.061069
1.006836,1.427490,1.496826,37.793892,-137.564880,7.160306
0.432617,1.523438,1.984314,58.145039,-111.824425,11.137404
-0.249512,1.307373,1.984314,58.183205,-52.786259,24.900763
-0.780762,0.697510,1.984314,52.137405,10.442748,44.000000
-0.583740,0.996094,1.984314,70.106873,-23.374046,49.213741
1.327148,0.559326,-1.189453,19.053434,-124.358780,38.557251
-0.331543,0.943359,1.984314,94.534348,-60.145039,41.297710
-0.238525,-0.036865,1.662354,53.267174,13.366412,51.732826
-0.024170,0.174805,1.964600,51.732826,-2.610687,47.236641
0.765625,0.749023,1.741943,36.274811,-109.496185,48.305344
0.369629,-0.503906,-0.493896,-14.190840,-37.740459,66.244278
0.800537,0.721680,1.589844,69.541985,-90.282440,36.687023
0.101807,0.090820,0.636475,46.801525,-41.198475,52.694656
0.900879,0.205811,0.552490,10.465649,-56.656490,53.061069
1.135498,0.423340,0.564453,-4.687023,-57.648853,43.122139
1.072754,0.379395,0.577881,-21.664122,-29.732824,35.908398
0.792480,0.137207,0.579834,-29.312977,1.916031,35.687023
0.512207,0.036865,0.790771,-18.351145,11.839695,36.404579
0.543457,0.261963,0.972412,-1.229008,-34.282444,29.648855
0.758301,0.240234,0.608887,-5.282443,-77.885498,26.748091
0.685547,0.129639,0.630371,-2.816794,-28.687023,29.786259
0.800537,0.403076,0.824707,2.893130,-47.259541,26.160305
0.699219,0.177490,0.506348,-29.312977,-17.442749,39.679390
0.619629,0.430908,0.888184,2.442748,-40.328243,36.290077
0.618652,0.614746,1.090088,10.916031,-64.061066,36.793892
0.300049,0.111816,0.342285,-23.175573,-8.717557,48.923664
1.017822,1.058838,1.984314,17.992367,-83.870232,21.244274
0.853271,1.041748,1.798096,-1.793893,-129.587784,24.404581
0.025635,0.572510,1.984314,-4.122138,5.824428,38.236641
1.083496,-0.876465,-1.722656,-84.435112,6.755725,32.068703
-0.004395,0.905029,1.984314,13.984733,-41.000000,32.603054
1.822021,0.738281,-1.131104,-26.320610,-155.763351,14.725191
1.747559,-0.491699,-2.000000,-60.961834,-92.412216,22.328245
1.201660,-0.938965,-2.000000,-73.007637,-36.549618,32.839695
1.056396,-1.076904,-1.918945,-73.801529,-37.106869,36.206108
1.372314,-1.035400,-2.000000,-67.633591,-73.496185,37.083969
1.903320,-0.509766,-2.000000,-52.145039,-119.473282,31.251909
1.984314,0.419434,-2.000000,-32.938931,-152.618317,28.679390
1.969727,1.186279,-0.950684,-19.793894,-145.267181,34.648853
0.979492,1.340576,1.984314,-4.068702,-81.519081,42.099236
-0.092529,0.705322,1.984314,3.793893,-21.488550,53.381680
-0.211426,-0.454590,1.984314,-9.916031,-0.236641,56.992367
0.164551,-0.493164,1.984314,-9.877863,6.251908,51.694656
1.091553,1.219238,1.984314,48.282444,-82.862595,33.854961
1.276367,-0.769775,-0.751465,-43.496181,2.213740,25.061069
1.902344,-0.171631,-1.716309,-29.793894,-115.404579,4.389313
1.641846,-0.165771,-1.297607,-19.916031,-118.419846,4.244275
1.095947,-0.443359,-0.563721,-20.366413,-24.977098,11.946565
1.163574,0.553467,1.837402,58.007633,-16.824427,-1.328244
1.451172,-0.191162,-0.316895,-15.793893,-75.648857,-4.274809
1.592285,0.597412,1.048340,37.335876,-39.038166,-35.465649
0.912842,0.081299,0.487305,7.717557,30.007633,-32.832062
0.961670,-0.319336,0.341064,-12.694656,76.877861,-36.732826
0.727783,-0.409912,0.334473,9.145039,75.480919,-29.877863
0.604248,-0.188965,0.545654,44.732826,46.549618,-19.679390
0.806396,0.239746,0.842773,73.022903,13.015267,-27.068703
1.159424,0.513184,0.750488,75.633591,-16.442749,-41.221375
1.285645,0.282715,0.357666,32.251907,13.328244,-32.122139
1.100098,0.190430,0.615479,16.824427,77.114502,-33.198475
1.085938,0.311523,0.465332,19.068703,44.885498,-47.702290
0.778564,-0.090088,0.227783,9.832061,73.923668,-28.618320
0.763428,0.168457,0.611816,42.381680,52.717556,-23.534351
0.770508,0.440918,0.754150,55.816795,38.435116,-16.595419
0.187256,-0.104004,0.554687,22.312977,80.748093,-5.236641
1.190430,1.131104,1.984314,80.045799,32.282444,-39.664124
1.160400,1.285889,1.444336,64.038170,-11.129771,-45.221375
0.374023,1.171143,1.984314,23.687023,121.488548,-33.793892
0.950928,-0.691162,-1.454346,-73.473282,54.320610,-46.374046
0.504883,1.302490,1.984314,3.068702,129.702286,-35.343510
1.899414,0.128662,-2.000000,-9.091603,-21.404581,-51.015266
1.012207,-0.934082,-2.000000,-49.511452,8.977099,-40.984734
0.202637,-0.741211,-0.384766,-55.465649,55.198475,-34.541985
1.866699,-0.236572,-2.000000,-56.603054,53.106869,-39.984734
1.972168,-0.188232,-2.000000,-64.358780,53.992367,-44.893131
1.984314,0.015869,-2.000000,-66.053436,42.343510,-51.519085
1.984314,0.405762,-2.000000,-57.328243,18.229008,-56.847328
1.984314,0.874023,-1.068115,-39.114502,-6.045802,-61.320610
1.463135,1.239258,0.972412,-14.908397,-18.015266,-62.603054
0.673340,1.310059,1.984314,13.557252,-7.366412,-58.473282
-0.087158,1.087891,1.984314,25.633587,29.068703,-46.641220
0.270508,1.263428,1.984314,20.381680,6.053435,-48.290077
1.757813,0.018555,-2.000000,-67.938934,43.320610,-41.801525
0.264160,1.100342,1.984314,29.328245,44.328243,-53.267174
-0.120605,0.191650,1.984314,15.770992,136.213745,-37.763359
0.101563,0.485840,1.984314,25.992367,98.442749,-44.068703
0.899170,0.888184,1.306152,4.213740,-16.129770,-51.419846
0.296143,-0.359131,-0.549072,-51.877861,89.389313,-30.290077
0.942871,0.734863,1.403809,2.381679,13.503817,-56.061069
0.007324,0.030518,0.723633,-17.068703,86.259544,-36.068703
0.506836,-0.189453,0.392578,-46.526718,82.030533,-25.114504
0.711426,-0.080566,0.347900,-45.335876,69.122139,-30.534351
0.688965,-0.081787,0.415527,-40.335876,73.969467,-31.870230
0.508301,-0.144287,0.528320,-32.786259,94.503815,-29.251909
0.324219,-0.060059,0.816895,-8.328244,98.709923,-29.381680
0.369629,0.193604,0.881592,16.977098,57.534351,-33.748093
0.421387,0.065430,0.477051,8.488549,37.526718,-22.809160
0.199219,-0.011230,0.601807,15.664123,66.832062,-14.946565
0.343994,0.305908,0.658203,19.274809,21.259542,-20.290077
0.227539,0.138184,0.425293,2.496183,39.320610,-7.656488
0.333496,0.413818,0.914551,12.335877,0.656489,-16.305344
0.396973,0.589844,0.933594,8.175572,-18.190840,-10.938931
-0.362549,-0.088379,0.720459,-21.656488,69.916031,14.450381
0.658936,0.962646,1.984314,2.877863,-34.984734,-4.572519
0.552734,1.103760,1.164795,-12.282443,-82.297707,-0.534351
-0.191162,1.220459,1.984314,4.213740,-4.832061,7.694656
-0.143555,-0.817871,-0.762451,-99.496185,71.694656,28.358778
0.375244,1.456055,1.984314,-10.793893,-71.022903,-1.671756
1.307373,-0.225342,-2.000000,-94.938934,-86.099236,2.000000
0.122559,-0.976562,-1.060059,-94.045799,24.458015,18.778625
-0.549072,-0.577637,1.691650,-54.557251,53.656490,23.732824
-0.635742,-0.227783,1.984314,-27.824427,58.099236,23.977098
-0.581543,-0.215332,1.984314,-22.770992,70.648857,23.335878
-0.453857,-0.429932,1.984314,-36.083969,82.351143,23.961832
-0.166016,-0.700195,0.712891,-63.618320,68.351143,22.740458
0.381592,-0.895752,-1.064453,-72.488548,34.221375,18.045801
1.089355,-0.804687,-2.000000,-63.557251,-24.213741,7.801527
1.720947,-0.311523,-2.000000,-41.404579,-79.160309,-4.847328
1.971680,0.413574,-2.000000,-13.183207,-104.603050,-14.030535
1.860840,0.101563,-2.000000,-22.625954,-95.633591,-12.312977
-0.092529,-0.874268,0.607666,-43.183205,91.977097,18.160305
1.498535,0.359863,-0.776367,0.671756,-91.328247,-14.862596
0.861328,1.027100,1.633789,49.244274,-68.206108,-13.274809
0.895508,0.827148,0.914795,41.824429,-86.923668,-11.519084
0.610596,-0.245850,-0.826172,-8.366412,-54.801525,1.183206
0.123047,0.279785,1.497803,37.519085,46.671757,-5.305344
0.839844,-0.004395,-0.055664,2.786260,-65.625954,-2.480916
0.707520,0.726807,1.333740,44.786259,-34.045803,-20.748091
0.146484,0.315186,1.118896,25.908398,3.473282,-6.977099
0.271973,0.090088,1.024170,9.740458,21.816793,-3.877863
0.315674,0.111572,1.023193,13.351145,17.725191,-3.183206
0.388184,0.288818,1.136230,24.877863,5.213740,-5.625954
0.593750,0.475342,1.072998,34.206108,-29.717558,-11.045801
0.788086,0.368652,0.720947,23.343512,-46.381680,-6.633588
0.687012,0.137695,0.735596,5.839694,6.755725,1.648855
0.752930,0.451660,1.025391,17.404581,2.625954,-12.549619
0.792969,0.321045,0.577393,-3.152672,-8.206107,-8.099236
0.670166,0.314697,0.920166,10.679389,20.366413,-19.862595
0.862305,0.223145,0.714355,-1.740458,-13.801527,-15.801527
0.980957,0.083984,0.333496,-5.916030,-7.007634,-18.625954
0.782959,0.835449,1.421875,47.328243,8.954199,-28.625954
0.824463,-0.190430,-0.931885,-16.145039,-31.625954,-18.259542
0.708496,-0.597168,-1.484863,-28.572519,10.992367,-17.137405
1.153076,0.142090,-1.715088,13.564885,-72.183205,-20.770992
-0.428223,1.149170,1.984314,46.885498,91.412216,12.908397
0.854492,-0.429932,-2.000000,10.122137,-100.870232,-6.351145
-0.954590,-0.233154,1.944092,-24.396946,33.068703,18.847328
-0.613037,1.141846,1.984314,14.366412,14.572519,16.748091
0.238037,1.317139,1.984314,31.732824,-46.740459,10.809160
0.703125,1.177246,1.984314,32.709923,-79.114502,17.412214
0.887939,1.128174,1.984314,35.984734,-94.702293,25.312977
0.904053,1.140869,1.984314,40.786259,-94.961830,27.282442
0.709961,1.135742,1.984314,39.938931,-66.511452,28.519083
0.294922,1.050781,1.984314,18.343512,-9.000000,32.641220
0.640625,-0.894775,-0.275635,-24.496183,53.435116,36.954197
1.211426,-0.822266,-2.000000,-50.954197,57.923664,36.450382
1.715088,-0.478516,-2.000000,-59.496181,5.900764,26.610687
1.372559,-0.717773,-2.000000,-53.587788,5.564886,26.419847
-0.143555,0.535645,1.984314,37.519085,-46.870228,14.229008
1.496338,-0.485352,-1.681885,-40.633587,-11.068703,12.664123
1.800293,0.223389,-0.929932,-36.312977,-76.328247,-0.267176
1.507324,-0.024414,-0.883301,-33.679390,-23.358778,1.320611
0.753906,-0.046387,0.454590,12.038168,63.236641,-4.885496
1.276123,1.114990,1.538574,44.335876,-77.503815,-24.106871
0.329590,0.106934,0.076660,3.458015,47.236641,-9.770992
1.293213,0.646240,0.600342,-2.419847,-36.564884,-18.290077
0.824219,0.928955,0.883789,24.854961,-39.229008,-25.854961
0.596436,0.853516,0.993652,26.809160,-41.709923,-16.297710
0.689697,0.764160,0.923340,22.045801,-45.320610,-11.244275
0.847168,0.648682,0.722412,8.511451,-48.236641,-6.526718
0.917236,0.354248,0.416748,-12.732824,-32.091602,0.717557
0.775635,0.062500,0.495850,-21.580153,14.198473,1.259542
0.815430,0.319336,0.906494,7.885496,6.641222,-12.374045
0.927734,0.305176,0.455566,0.587786,-15.488549,-3.755725
0.598145,0.105957,0.568359,-0.458015,42.763359,-4.557252
0.739990,0.287354,0.666748,2.740458,-11.137404,-0.511450
0.517334,0.036377,0.618408,-1.664122,28.221375,1.305344
0.481689,0.100098,1.051514,9.091603,31.221375,1.480916
1.165771,-0.073486,-0.070312,-25.458015,-9.664123,-1.206107
-0.016602,0.097900,1.207031,16.267176,93.595421,4.908397
-0.040039,0.424561,1.984314,33.427483,55.396946,14.549619
-0.028564,-0.533447,0.621826,-5.641222,83.015266,27.755726
1.758301,0.322266,-1.419678,-13.458015,-107.068703,-6.366412
-0.291504,0.118896,1.984314,18.312977,64.946564,17.137405
1.051025,1.481201,1.932617,31.068703,-93.969467,-7.473282
1.910889,0.227051,-2.000000,-15.015267,-85.923668,-4.793893
1.441406,-0.639648,-2.000000,-42.473282,-25.419847,11.465649
1.037598,-0.813721,-2.000000,-40.312977,-4.213740,20.946566
0.984863,-0.814941,-2.000000,-39.442749,-0.030534,18.969465
1.137939,-0.843262,-2.000000,-44.717556,3.404580,16.305344
1.393311,-0.746582,-2.000000,-41.908398,-8.076336,15.748092
1.683350,-0.438477,-2.000000,-30.870230,-33.801525,15.694656
1.940918,0.090576,-2.000000,-15.335877,-69.526718,13.938931
1.984314,0.667480,-2.000000,-2.167939,-98.664124,6.725191
1.827148,1.175293,-0.492432,8.076336,-106.969467,1.145038
1.923828,0.741455,-1.090088,-5.488550,-115.763359,-1.358779
0.416016,-0.864258,-0.291748,-55.045803,54.961834,25.053434
1.702148,0.585205,-0.456055,-3.725191,-119.396950,0.122137
1.171387,1.155518,1.472656,39.038166,-86.908394,7.656488
1.257813,0.855225,0.570801,23.977098,-93.290077,12.038168
0.897705,-0.240723,-0.769775,-32.221375,-20.717558,27.900763
0.493408,0.470215,1.580566,30.312977,38.381680,24.969465
0.965332,-0.075195,-0.149902,-25.564886,-45.007633,37.931297
1.088135,0.691895,1.072998,21.213741,-37.671757,19.603054
0.426025,0.439697,0.947998,9.641221,-0.374046,28.206106
0.394531,0.163574,0.934082,-9.488549,28.770992,34.923664
0.416260,0.096924,0.871826,-6.435114,14.816793,35.969467
0.557373,0.251221,0.858154,9.091603,-14.587787,28.763359
0.799316,0.359863,0.658691,14.465649,-45.893131,22.954199
0.897461,0.152344,0.363037,-4.076336,-36.099236,28.778625
0.733643,0.066162,0.614990,-11.114504,14.458015,30.106871
0.867676,0.384521,0.768555,-0.740458,-9.587787,18.511450
0.791016,0.164551,0.292236,-27.137405,3.625954,30.450382
0.739990,0.262207,0.629639,-15.366412,11.450381,16.740458
0.794922,-0.000977,0.256348,-41.610687,-1.832061,27.320610
0.850342,-0.212646,0.075684,-41.068703,-9.854961,26.740458
1.128662,0.625488,0.955811,18.541985,-41.297710,11.290076
0.815430,-0.602783,-1.012939,-50.908398,-46.290077,28.290077
0.908203,-0.832520,-0.739014,-43.015266,16.419847,20.870230
1.729980,-0.424561,-1.793945,-2.167939,-87.305344,7.564886
0.842773,1.300049,1.984314,76.076332,18.297710,20.160305
1.457275,-0.775391,-2.000000,-5.396946,-29.053434,12.221375
-0.161133,0.396240,1.984314,4.709924,127.793892,32.748093
0.748779,1.500732,1.984314,43.061069,64.557251,16.274809
1.705078,1.204346,0.824951,46.267174,-11.076336,5.824428
1.984314,0.766113,-0.598633,54.633587,-26.816793,5.183206
1.984314,0.610107,-0.981934,67.389313,-30.656488,3.152672
1.984314,0.726562,-0.605957,80.198471,-7.679389,5.442748
1.886719,1.051514,0.418457,84.694656,32.885498,12.755725
1.399658,1.441895,1.854980,83.801529,83.557251,19.740458
0.739990,1.540771,1.984314,70.748093,126.351143,20.076336
0.072510,1.308350,1.984314,43.854961,154.061066,15.320611
-0.364258,0.708984,1.984314,10.114504,159.244278,11.366412
-0.201416,0.921631,1.984314,11.625955,164.442749,11.213740
1.789307,0.966064,-0.289551,43.198475,-7.129771,-19.847328
-0.074463,0.489258,1.984314,-3.893130,178.740463,11.587787
0.936523,-0.650146,-1.329834,-45.480915,142.412216,10.290076
0.562012,-0.632812,-0.550537,-33.641220,158.259537,11.229008
0.299561,0.279297,1.792725,21.068703,111.954201,-4.030534
1.142090,0.268066,0.444824,-30.679390,3.969466,0.809160
0.218750,0.068359,1.323486,12.389313,99.244278,-5.045802
0.697998,-0.485352,0.339355,-28.671755,84.778625,15.885496
1.106201,0.019043,0.635498,-15.908397,57.488548,8.404580
0.926025,0.291992,0.664795,-2.213740,46.389313,7.335878
0.843994,0.341309,0.649658,-7.267176,54.603054,7.007634
0.764893,0.218018,0.522461,-22.916031,68.366409,7.824428
0.580078,0.032227,0.583740,-37.137405,92.893127,10.526717
0.439209,0.072021,0.985107,-29.755726,95.816795,4.557252
0.624512,0.209961,0.948486,-14.213740,49.198475,-3.679389
0.548828,-0.086182,0.561523,-24.938931,71.648857,7.160306
0.453369,0.072266,0.963135,-3.709924,80.259544,-0.809160
0.498535,0.100098,0.573242,-20.114504,66.534348,4.770992
0.266602,0.203125,0.830322,0.038168,81.656487,-4.221374
0.084961,0.331787,1.171387,-0.916031,73.870232,-6.022901
0.440186,-0.261963,-0.269287,-63.488548,80.366409,8.122137
-0.084961,0.343262,1.984314,7.427481,96.893127,-10.412213
-0.037842,0.558350,1.984314,20.374046,58.709923,-7.427481
-0.455566,-0.569580,1.984314,-7.648855,151.038162,9.251908
1.334229,-0.475342,-2.000000,-43.587788,18.625954,-5.183206
-0.673096,0.176270,1.984314,54.549618,123.641220,2.641221
1.149414,1.116211,0.744873,52.167938,-25.580153,-19.198473
1.345703,-0.236328,-2.000000,0.458015,35.496181,-8.251908
0.613770,-0.840332,-2.000000,-7.221374,97.351143,5.656488
0.122803,-0.993652,-1.771729,-11.335877,116.305344,11.969465
0.032715,-1.063477,-1.368164,-27.099237,102.541985,15.053435
0.274170,-1.121826,-1.655273,-41.427483,76.114502,14.709924
0.717773,-1.117920,-2.000000,-47.305344,23.969465,9.534351
1.200195,-0.875244,-2.000000,-42.870228,-4.030534,5.145038
1.512695,-0.377686,-2.000000,-24.343512,-31.038168,0.633588
1.563965,0.242187,-2.000000,4.526718,-53.183205,-0.809160
1.302002,0.902832,-0.479980,26.938931,-60.480915,-0.053435
1.310303,0.620361,-1.180176,4.114504,-76.473282,4.763359
-0.282715,-0.916504,-0.747559,-61.702290,84.702293,38.587788
1.121338,0.526855,-0.309326,-20.916031,-108.244278,8.083969
0.595947,1.062744,1.866455,9.534351,-95.007637,9.488549
0.799072,0.727051,0.983887,-12.725191,-115.816795,15.908397
0.479248,-0.537598,-0.576904,-72.267174,-49.190838,36.458015
0.227295,0.399170,1.908447,-19.328245,10.664123,22.992367
0.462158,-0.353027,-0.098145,-64.458015,-40.557251,37.740459
0.856445,0.568115,1.173096,-29.259542,-52.045803,10.137404
0.158691,0.356934,1.218262,-27.969465,-24.198473,15.786260
0.085449,0.170898,1.136719,-36.824429,-7.343512,18.740458
0.113525,0.129395,1.054688,-35.335876,-17.648855,14.572519
0.251465,0.181641,0.997559,-27.877863,-47.038166,7.419847
0.433594,0.136719,0.740723,-33.145039,-72.656487,6.282443
0.430176,-0.126465,0.644775,-43.045803,-50.763359,12.633588
0.289063,-0.160400,1.076416,-29.770992,-18.496183,6.312977
0.501709,0.097412,1.094971,-17.847328,-57.641220,-3.603053
0.392822,-0.166504,0.802002,-21.633587,-27.061069,14.732824
0.439941,0.070068,1.115723,0.282443,-35.366413,3.900763
0.407715,-0.163818,0.696777,-19.114504,-25.335878,18.725191
0.331299,-0.352295,0.504395,-27.206106,-6.374046,20.099237
0.934082,0.465088,0.723145,3.725191,-78.885498,1.671756
-0.068604,-0.806641,-0.484131,-62.740459,-5.305344,31.572519
-0.089111,-0.785645,0.384277,-60.992367,45.015266,28.908398
0.596436,-1.088867,-1.744141,-68.625954,-51.549618,21.045801
1.086914,0.996826,1.136963,42.870228,-112.984734,2.007634
-0.172852,-1.221191,-0.226562,-47.862595,-4.732824,32.435116
-0.271484,0.882080,1.984314,57.763359,18.511450,29.954199
1.149170,1.024658,0.612061,95.625954,-103.641220,13.435115
1.513184,0.350586,-2.000000,82.740456,-154.435120,7.603054
1.506348,0.037354,-2.000000,61.748093,-176.244278,-0.160305
1.572021,-0.049072,-2.000000,35.007633,-192.679382,-4.862596
1.711914,0.081543,-2.000000,15.839695,-200.106873,1.030534
1.814941,0.538574,-1.734375,18.961832,-195.236649,-2.664122
1.608643,1.001221,0.110352,37.687023,-163.740463,2.351145
1.186279,1.236328,1.984314,39.404579,-118.595421,15.305344
0.541748,1.169922,1.984314,7.862596,-43.259541,24.824427
-0.093994,0.795654,1.984314,-22.839695,3.389313,22.450382
0.082764,0.819580,1.984314,-14.694656,10.633588,20.610687
1.984314,0.132080,-0.566406,7.587786,-149.725189,-7.015267
0.078125,0.287842,1.984314,-21.870230,44.083969,27.076336
0.237549,-0.787598,1.372803,-62.167938,36.618320,29.496183
0.374023,-0.438477,1.648926,-38.053436,45.259541,25.961832
0.997803,0.554687,1.931152,27.145039,-26.931297,11.297709
1.038818,-0.489746,-0.161133,-14.488549,-82.496185,21.770992
0.830322,0.572266,1.460938,31.061069,8.709924,12.000000
0.720459,-0.338867,0.160889,-27.297710,7.068702,34.007633
1.119873,0.139160,0.271973,-30.389313,-33.740459,19.717558
0.973633,0.300781,0.260010,-27.618320,-62.656490,11.450381
0.927490,0.175537,0.249756,-37.717556,-62.854961,9.320611
0.887695,-0.110107,0.298340,-48.549618,-40.755726,12.801527
0.776123,-0.364502,0.539307,-45.015266,-19.511450,14.725191
0.692139,-0.281494,0.951416,-19.755726,-34.900764,2.091603
0.930908,-0.078125,0.913330,-7.832061,-89.343513,-10.778625
0.982422,-0.352783,0.674805,-12.877863,-62.396946,-1.885496
0.941406,-0.144775,1.152100,12.511451,-44.480915,-8.435115
1.098389,-0.105957,0.846436,-5.763359,-50.465649,2.335878
0.830566,-0.107910,1.135010,7.450382,-3.213740,-3.763359
0.640625,-0.051025,1.300781,13.717557,2.786260,0.564885
1.101807,-0.642822,0.126709,-33.450382,13.519084,10.587787
0.282471,0.033691,1.607666,34.770992,43.748093,-2.885496
0.296875,0.379883,1.984314,49.328243,-4.061069,-2.687023
0.073486,-0.691162,1.115967,14.870229,81.213737,12.526717
1.950684,-0.279541,-1.787109,-24.503817,-59.267174,-4.755725
-0.165771,0.020020,1.984314,33.541985,50.198475,7.236641
1.511963,1.150146,1.486572,25.213741,-103.557251,-18.954199
1.984314,-0.318359,-2.000000,-26.610687,-52.809162,-10.152672
1.603760,-1.229248,-2.000000,-45.137405,28.992367,3.709924
1.098389,-1.375977,-1.954590,-36.015266,66.832062,10.870229
0.970215,-1.343262,-1.747559,-27.633587,73.152672,10.221375
1.137451,-1.301025,-2.000000,-24.725191,65.717560,5.061069
1.484375,-1.167725,-2.000000,-21.526718,46.106869,-1.839695
1.869629,-0.812744,-2.000000,-12.694656,14.076336,-9.748092
1.984314,-0.239502,-2.000000,2.916031,-19.167938,-17.923664
1.984314,0.374939,-0.000061,-0.007634,-0.007634,-0.007634
1.687500,1.004883,0.498047,44.809162,-46.366413,-24.664122
1.793213,0.777588,-0.073242,43.022900,-53.213741,-23.511450
0.744141,-1.211426,-1.188232,-21.870230,93.854965,5.923664
1.613770,0.900391,0.710449,51.183205,-65.984734,-27.923664
0.967041,1.130615,1.984314,79.893127,-10.671756,-25.442749
1.284424,0.983154,1.754395,70.274811,-25.175573,-29.022902
1.322510,-0.025879,-0.341553,6.358778,8.000000,-15.198473
0.566895,-0.056641,1.304199,33.274811,142.465652,-16.412214
1.401367,0.057373,0.269775,13.335877,36.641220,-20.603054
0.885498,0.551758,1.354248,58.450382,74.770996,-34.816795
0.419922,0.075928,1.141846,52.183205,114.076332,-24.312977
0.549561,-0.145508,1.026855,27.641222,127.770996,-12.931297
0.596924,-0.167725,1.016113,20.954199,135.633591,-5.427481
0.587646,-0.018799,1.108887,28.816793,136.656494,-10.068703
0.627197,0.213623,1.000977,27.931297,109.427483,-16.984734
0.674805,0.115723,0.617187,8.519084,89.251907,-11.259542
0.475342,-0.205078,0.596191,-3.916031,120.702293,-0.687023
0.484375,0.024902,0.976562,20.000000,99.465652,-17.137405
0.540283,-0.034424,0.550781,11.335877,78.549622,-12.145039
0.394775,0.063232,0.764893,31.229008,99.702293,-13.687023
0.560791,0.146973,0.389893,5.587786,70.931297,-12.114504
0.652344,0.083496,0.049561,-12.519084,60.595421,-15.824428
0.132568,0.624756,1.463623,16.625954,74.160309,-20.236641
0.807373,-0.068848,-0.679687,-39.526718,-27.198473,-17.068703
0.880859,-0.604980,-1.484619,-53.167938,-23.778625,-16.916031
1.316406,0.449707,-0.302979,10.244275,-74.862595,-30.229008
-0.457031,0.511475,1.984314,21.015266,121.442749,-0.648855
1.451660,-0.281494,-2.000000,0.671756,-41.541985,-24.702290
-0.537598,-0.913330,1.081543,-16.061069,136.580154,1.923664
-0.695068,0.706543,1.984314,46.694656,131.114502,-2.076336
0.106689,1.299072,1.984314,73.068703,56.725189,-7.221374
0.640625,1.319092,1.984314,70.969467,5.671756,-12.748092
0.836426,1.273438,1.984314,62.083969,8.335877,-12.679389
0.770264,1.316162,1.984314,55.015266,21.778625,-10.061069
0.465332,1.355957,1.984314,47.251907,56.030533,-3.389313
-0.037598,1.274902,1.984314,36.709923,97.725189,3.091603
-0.582520,0.930420,1.984314,20.343512,127.473282,8.687023
-0.938965,0.360107,1.984314,2.061069,136.343506,14.305344
-0.997070,-0.280518,1.984314,-13.854961,120.236641,15.122137
-0.898926,0.064697,1.984314,-2.053435,131.015274,15.694656
1.005615,1.172852,1.172119,70.908394,-26.725191,-18.503817
-0.633301,-0.049316,1.984314,-13.396947,132.000000,13.473283
-0.236816,-0.871582,0.113281,-41.633587,71.992363,11.664123
-0.276123,-0.533936,1.104736,-28.419847,97.053436,13.916031
0.309570,0.705078,1.984314,30.992367,55.694656,-6.244275
0.376465,-0.285645,-0.294678,5.709924,-39.923664,-1.809160
0.339111,0.546143,1.984314,33.465649,52.259541,-11.022901
-0.254639,-0.348877,0.514648,1.244275,48.648853,10.709924
0.368408,-0.181396,0.309082,-1.374046,16.152672,-0.351145
0.403076,-0.003906,0.298340,-1.503817,-7.427481,-3.679389
0.346191,-0.015137,0.372559,-8.580153,-8.442748,-2.503817
0.198730,-0.129395,0.473877,-18.030535,11.053435,2.236641
0.095215,-0.117188,0.694824,-17.213741,33.625954,3.488550
0.185059,0.231689,1.090088,-8.809160,4.503817,-5.793893
0.318848,0.255127,0.740234,-21.412214,-36.145039,1.931298
0.081299,-0.013672,0.718750,-22.671755,9.770992,9.335877
0.285156,0.254150,1.001465,-24.702290,-26.702290,0.167939
0.121338,0.042725,0.636963,-33.793892,-1.648855,14.541985
0.307373,0.380615,0.904053,-25.129770,-47.312977,5.099236
0.430420,0.523193,0.841553,-27.641222,-64.870232,5.740458
-0.386475,0.142578,1.362793,-28.328245,1.595420,19.198473
0.884521,0.728027,1.195068,-32.053436,-107.458015,10.175572
0.889893,0.393066,-0.142578,-58.320610,-110.450378,11.755725
0.657471,1.222412,1.984314,-8.977099,-130.488556,2.297710
-0.754395,-0.369629,1.984314,-19.694656,55.801525,34.145039
1.350830,0.721924,-0.509766,-42.229008,-123.305344,9.419847
0.112793,-1.186279,-1.228760,-51.496181,50.877861,35.389313
-0.895508,-0.139648,1.984314,25.610687,31.679390,19.274809
-0.573975,0.839844,1.984314,58.541985,-44.541985,-2.335878
-0.198975,1.158691,1.984314,63.526718,-83.328247,-14.122137
-0.115723,1.202393,1.984314,66.045799,-88.480919,-16.221375
-0.285156,1.086426,1.984314,67.801529,-71.022903,-12.778625
-0.576172,0.772705,1.984314,65.603050,-16.038168,0.045802
-0.827393,0.252930,1.984314,52.740459,26.885496,10.015267
-0.877930,-0.374756,1.984314,28.053434,57.068703,17.656488
-0.570312,-0.942871,0.990723,-4.770992,58.374046,20.809160
0.120117,-1.187500,-1.170898,-30.328245,22.671755,19.038168
-0.069824,-1.138428,-0.442383,-30.732824,29.351145,23.671755
-0.077881,0.991699,1.984314,63.244274,-70.076332,-1.488550
0.310303,-1.154785,-0.765625,-29.458015,25.633587,26.992367
1.051270,-0.747314,-1.433350,-26.427481,-34.297710,17.717558
0.556885,-0.867676,-1.119141,-18.198473,19.984734,28.679390
-0.216797,-0.378662,0.799072,32.961834,72.267174,34.145039
0.605713,0.537354,0.696777,65.396950,-107.290077,21.893129
-0.337646,-0.226562,0.447021,48.122139,-42.351147,27.251909
0.847900,0.040039,0.267090,36.763359,-155.534348,17.786259
1.055908,0.698486,0.777588,37.030533,-160.480911,0.473282
0.805664,0.744141,0.929687,14.366412,-113.801529,4.931298
0.641846,0.590332,0.935547,-3.061069,-81.847328,6.396946
0.576416,0.382568,0.789551,-19.183207,-96.709923,8.534351
0.640381,0.070312,0.697998,-34.038166,-108.000000,17.938931
0.737793,-0.179443,1.009033,-33.557251,-102.030533,21.183207
0.946533,0.046143,1.453857,-12.465649,-112.656487,6.099236
1.187012,0.019287,1.086670,-20.954199,-98.297707,4.793893
0.913574,-0.108887,1.146240,-23.778625,-8.145039,10.648855
0.849121,0.049072,1.081787,-32.129772,-22.702290,10.335877
0.580566,-0.243896,0.945801,-39.908398,8.496183,16.366413
0.504395,-0.377930,0.986328,-34.824429,-12.045801,12.633588
1.456055,0.049561,0.548340,-27.000000,-114.221375,-11.610687
0.336914,-0.760986,0.228760,-53.557251,14.030535,9.099236
0.317383,-0.695068,1.075928,-40.435116,77.977097,11.450381
0.822754,-1.213135,-1.446777,-68.770996,20.129770,8.480916
1.146484,0.910400,1.065674,25.480917,-101.335876,-12.290076
0.028076,-1.140869,-0.599854,-52.671757,21.603054,14.473283
-0.339111,0.890381,1.984314,20.923664,3.679389,7.763359
1.193115,1.156982,1.515137,39.076336,-128.282440,-14.946565
1.981445,0.510254,-0.954834,18.030535,-164.358780,-21.183207
1.984314,0.113037,-1.939453,2.938931,-149.641220,-18.648855
1.984314,0.068359,-2.000000,1.648855,-133.099243,-15.229008
1.984314,0.304932,-1.779541,12.961832,-130.259537,-12.916031
1.984314,0.729736,-0.823486,29.702290,-129.946564,-11.183207
1.789795,1.142578,0.677246,42.404579,-112.129768,-6.748092
1.312744,1.303223,1.984314,44.351147,-64.427483,-0.312977
0.661377,1.250977,1.984314,26.190840,21.458015,8.984733
0.034180,0.925293,1.984314,3.961832,73.534348,13.229008
0.203613,1.115234,1.984314,21.854961,63.671757,9.618320
1.975098,0.318604,-1.451172,11.328244,-103.328247,-17.832062
0.123047,0.761475,1.984314,16.862595,75.709923,10.038168
0.049561,-0.268066,1.470703,-21.351145,94.106873,19.419847
0.234863,0.025146,1.770264,-0.732824,79.465652,15.129771
0.979980,0.766602,1.845215,39.755726,-18.656488,-2.160305
0.825928,-0.365234,-0.517090,-36.419846,-37.419846,9.412213
0.878418,0.576416,1.616943,22.625954,23.847328,-6.648855
0.300049,-0.400391,0.273438,-38.305344,32.595421,14.977099
1.024658,-0.305420,0.394775,-24.946566,-11.763359,5.824428
1.078369,-0.037109,0.391846,-8.236641,-40.832062,0.549618
1.092529,0.011963,0.448486,-7.656488,-38.732826,-0.259542
1.021240,-0.123535,0.451416,-18.381680,-15.190840,4.381680
0.842285,-0.222168,0.614014,-23.206106,23.083969,9.435115
0.758789,-0.011230,0.945068,-6.717557,30.236641,4.022901
0.953125,0.181152,0.740967,6.045802,-20.458015,-2.610687
0.897217,-0.124512,0.440430,-10.778625,1.557252,7.702290
0.893799,0.068115,0.875244,9.015267,18.442749,-3.610687
0.978516,0.004395,0.613525,-2.732824,4.519084,5.419847
0.728271,-0.045410,0.872314,16.251909,39.519085,-2.526718
0.557617,0.020508,1.145752,29.770992,39.282444,0.198473
1.182617,-0.387695,-0.141602,-19.809160,35.778625,9.358779
0.292480,0.000244,1.627197,48.961834,85.770996,-4.068702
0.291504,0.336670,1.984314,61.641220,46.259541,-4.129771
0.168945,-0.748535,0.784180,22.595419,134.068695,12.076336
1.917480,0.177979,-1.563721,-19.526718,-11.183207,-8.465649
-0.245117,-0.110107,1.984314,40.267174,100.687019,0.625954
1.131836,1.480957,1.984314,28.755726,-59.374046,-29.511450
1.984314,0.315674,-1.979248,-37.709923,-20.351145,-23.274809
1.673828,-0.662354,-2.000000,-66.335876,50.839695,-10.839695
1.232178,-0.964600,-2.000000,-73.351143,84.152672,-5.267176
1.104736,-1.067871,-2.000000,-76.045799,90.381676,-5.854962
1.220703,-1.123779,-2.000000,-78.076332,81.541985,-7.595420
1.500732,-1.006348,-2.000000,-76.526718,55.519085,-9.435115
1.828369,-0.637939,-2.000000,-66.748093,20.274809,-15.022901
1.984314,-0.053467,-2.000000,-44.244274,-16.725191,-23.122137
1.950439,0.621582,-0.963379,-12.633588,-41.893131,-30.458015
1.519775,1.133789,0.990479,17.458015,-43.022900,-32.083969
1.662598,0.926514,0.133301,12.458015,-42.717556,-30.068703
0.584961,-1.106201,-1.372314,-51.770992,126.145035,2.351145
1.334473,0.876953,0.625732,1.717557,-47.511452,-32.061069
0.553467,0.977783,1.984314,26.076336,-8.496183,-25.442749
0.779297,0.739014,1.695068,8.778625,-32.305344,-20.931297
0.754883,-0.324219,-0.463867,-51.083969,-1.923664,-1.274809
0.058594,-0.224609,1.328369,-9.618320,98.824425,-4.061069
0.891113,-0.246582,0.187744,-36.900764,-5.694656,3.923664
0.561768,0.333008,1.343018,12.335877,11.916031,-14.381680
0.081787,-0.075195,1.096924,4.534351,41.725189,1.977099
0.248535,-0.169922,0.963135,-7.290076,58.068703,9.396947
0.339111,-0.079590,0.945557,-4.656488,58.328243,8.374045
0.410156,0.126709,1.083984,6.465649,46.129772,0.122137
0.587646,0.339355,1.076172,12.229008,16.442749,-9.770992
0.714355,0.194092,0.753662,-2.137405,7.763359,-6.549618
0.549561,-0.075439,0.774414,-14.000000,58.885498,2.503817
0.603516,0.178711,1.108154,5.335878,44.809162,-10.374045
0.632080,0.043457,0.666992,-6.732824,39.893131,-0.854962
0.525391,0.126953,0.966064,8.106871,53.885498,-5.534351
0.690186,0.096924,0.616943,-21.694656,34.366413,1.053435
0.821777,-0.050537,0.229980,-34.740459,38.793892,0.267176
0.619873,0.684570,1.611572,12.809160,30.358778,-13.763359
0.865967,-0.292725,-0.832275,-48.480915,-3.534351,4.954198
0.918701,-0.741211,-1.286621,-52.122139,49.793892,0.183206
1.489502,0.149658,-1.216797,-2.824427,-38.580154,-25.167938
-0.069824,0.906738,1.984314,64.290077,92.702293,-7.679389
1.236572,-0.699463,-2.000000,-17.526718,19.541985,-4.809160
-0.682373,-0.381348,1.984314,12.335877,167.946564,11.580153
-0.124512,0.980225,1.984314,72.106873,84.656487,-7.038168
0.837891,1.055664,1.984314,73.648857,3.473282,-15.877863
1.297852,0.815674,0.478516,63.374046,-27.870230,-17.076336
1.424316,0.748291,0.029785,74.740456,-24.061069,-13.900764
1.362549,0.923340,0.358643,82.580154,-16.664122,-13.473283
1.104980,1.165771,1.324219,89.351143,3.267176,-10.740458
0.648193,1.329346,1.984314,90.549622,35.030533,-5.145038
0.045654,1.309326,1.984314,81.572517,75.137405,1.511450
-0.531982,1.002441,1.984314,62.351147,113.045799,9.175572
-0.895508,0.410889,1.984314,38.221375,135.900757,14.099236
-0.708496,0.749023,1.984314,49.244274,127.854965,8.694656
1.256836,0.763672,-0.329834,62.610687,-53.954197,-23.366413
-0.591553,0.556885,1.984314,32.259541,124.351143,5.603054
-0.510010,-0.465576,1.230225,-19.839695,122.595421,16.809160
-0.344238,-0.082520,1.813477,-2.702290,119.755722,11.419847
0.460693,0.943359,1.984314,45.778625,15.541985,-14.007633
0.149414,-0.475098,-0.383789,-7.000000,-5.381680,4.709924
0.538330,0.702637,1.848145,36.580154,21.519083,-15.977099
-0.291504,-0.211670,0.703857,3.343511,54.473282,10.770992
0.244141,-0.230469,0.281250,-9.480916,26.038168,6.526718
0.359619,-0.052002,0.213623,-14.412213,2.885496,4.488550
0.303467,-0.023437,0.273926,-22.541985,-1.580153,6.977099
0.170166,-0.085205,0.424561,-33.091602,12.450381,11.839695
0.078613,0.017334,0.798340,-36.015266,23.694656,11.618320
0.227051,0.293945,0.975342,-27.236641,-14.770992,3.610687
0.338623,0.146240,0.604492,-32.145039,-42.053436,11.374045
0.145996,0.000244,0.816895,-35.465649,4.618320,19.198473
0.327637,0.294922,0.870117,-34.076336,-33.236641,9.786260
0.199951,0.074707,0.644531,-43.396946,-6.122138,19.251909
0.333984,0.378174,0.955811,-20.725191,-45.274811,3.152672
0.452393,0.505859,0.935059,-10.045801,-65.038170,0.404580
-0.315674,0.111084,1.314941,-27.748091,18.534351,20.236641
0.944824,0.818848,1.223145,22.755726,-84.580154,-7.786260
0.326904,1.116943,1.984314,23.541985,-123.488548,-13.236641
-0.481445,0.633301,1.984314,47.488548,-36.335876,-11.244275
0.471680,-1.002441,-1.783447,-49.106869,45.450382,9.564885
-0.068848,1.125000,1.984314,56.954197,-92.305344,-25.465649
1.512207,0.163086,-1.837891,-26.809160,-80.946564,-13.000000
0.617920,-1.082275,-2.000000,-18.007633,37.786259,6.106870
-0.273682,-0.974121,0.273926,26.145039,56.854961,5.732824
-0.616699,-0.722656,1.638672,50.984734,50.221375,2.282443
-0.668457,-0.726318,1.834961,59.404579,50.335876,4.297710
-0.543945,-0.951904,1.135498,58.022900,59.687023,9.160305
-0.216797,-1.219971,-0.134766,48.610687,65.671753,13.167939
0.340332,-1.276855,-1.710449,30.236641,36.946564,12.198473
1.032471,-0.973389,-2.000000,28.267176,-16.053434,7.122138
1.567383,-0.322266,-2.000000,32.595421,-79.625954,-1.793893
1.694580,0.522217,-1.621338,41.916031,-125.641220,-8.885496
1.643066,0.246338,-1.673828,17.137405,-107.534348,-1.007634
-0.182373,-0.944336,0.063232,9.793893,68.389313,29.389313
1.342041,0.441650,-0.455078,14.183207,-112.732826,-2.725191
0.663818,1.101807,1.727295,60.946564,-134.549622,-4.832061
0.811035,0.850098,0.998291,50.862595,-146.534348,7.282443
0.653564,-0.260010,-0.712646,6.587786,-70.435112,25.610687
0.153076,0.325195,1.479492,67.503815,-12.160305,12.007633
0.781006,0.064941,-0.071533,16.541985,-95.328247,20.396946
0.596680,0.853516,1.193359,39.007633,-94.748093,0.908397
0.060547,0.410889,1.032715,8.007633,-64.603050,18.404581
0.294678,0.117676,1.168945,-18.450382,-45.938931,20.221375
0.411865,0.028564,1.254639,-24.099237,-51.748093,16.519083
0.521240,0.130615,1.445801,-7.366412,-68.625954,11.877863
0.702393,0.339844,1.393799,8.076336,-88.213737,9.816793
0.849365,0.314209,0.944336,-5.412214,-79.343513,18.045801
0.694092,0.156738,0.865967,-16.419847,-16.770992,28.603054
0.624268,0.435547,1.144287,-16.778625,-30.198473,22.847328
0.730713,0.281494,0.697021,-59.183205,-58.366413,27.030535
0.672119,0.134033,0.954834,-40.755726,-42.740459,23.488550
0.973877,0.072754,0.606201,-54.061069,-79.961830,20.114504
1.192871,0.065430,0.377441,-37.801525,-87.129768,7.106870
0.594727,0.504883,1.552246,26.793894,-54.603054,-4.129771
1.484131,0.092773,-0.026367,-15.595420,-134.320618,-8.984733
1.576904,-0.154541,-0.965088,-22.870230,-101.679390,-20.419847
1.614258,0.925781,0.623779,34.801525,-152.465652,-33.992367
-0.161133,0.110840,1.984314,40.351147,55.709923,-3.282443
1.877686,0.633301,-1.006836,25.992367,-116.763359,-27.809160
0.715088,-0.697510,-1.351563,-37.396946,26.106871,-4.106870
-0.430420,0.209229,1.984314,-1.305344,73.625954,5.786260
-0.411377,0.891357,1.984314,25.160305,45.877861,5.099236
-0.212402,1.144531,1.984314,33.412212,29.198473,7.190840
-0.224609,1.206787,1.984314,24.267176,20.251909,11.755725
-0.372314,0.984863,1.984314,11.358779,24.198473,17.687023
-0.523437,0.559814,1.984314,-8.687023,40.740459,24.786259
-0.562500,0.063721,1.984314,-30.625954,59.038166,27.305344
-0.379883,-0.376709,1.984314,-51.564884,58.679390,27.732824
0.164062,-0.799316,0.255371,-73.587784,15.496183,23.389313
0.982910,-1.013184,-1.545654,-70.748093,-38.198475,10.923664
0.814453,-1.008789,-0.980469,-67.610687,-10.129771,12.816793
0.114746,0.782471,1.984314,17.954199,26.793894,17.183207
1.008789,-0.868408,-1.111816,-52.763359,-4.213740,6.969466
1.577148,-0.167480,-1.182617,-28.007633,-93.343513,-5.923664
1.302002,-0.258789,-0.961426,-38.290077,-56.419846,-1.572519
0.633545,-0.220947,0.501221,-26.305344,56.679390,8.748092
1.201172,0.834473,1.536133,27.442749,-48.748093,-8.351145
0.412842,-0.225830,-0.223389,-46.267174,2.778626,5.816794
1.415527,0.328125,0.706787,-6.328244,-61.679390,-11.786260
0.836670,0.594971,0.914795,14.656488,-36.450382,-5.145038
0.718506,0.442871,1.048340,6.129771,-11.167939,3.381679
0.793945,0.396729,1.023926,1.259542,-5.274809,1.167939
0.921631,0.426025,0.943359,-1.167939,-12.847328,-3.603053
1.051270,0.317383,0.614990,-10.343512,-23.557251,-0.877863
1.005859,-0.002686,0.324219,-30.694656,4.473282,8.916031
0.751465,-0.041016,0.674561,-23.351145,54.694656,11.748092
0.834229,0.303711,0.769775,1.183206,6.251908,7.595420
0.829590,0.086426,0.429199,-13.549619,4.839694,14.709924
0.922119,0.280518,0.832031,4.175572,1.534351,-3.129771
1.092041,0.037842,0.510010,-25.534351,-5.549618,0.809160
1.224854,-0.143066,0.346680,-27.587786,2.083969,-6.687023
1.404541,0.602051,1.146484,31.160305,-4.549618,-22.061069
1.061279,-0.517578,-0.971436,-40.152672,-3.839695,-8.282443
0.971436,-0.720703,-0.903076,-37.290077,59.450382,-9.923664
1.604736,-0.313965,-1.994385,7.305344,-38.106869,-21.763359
0.625488,1.249512,1.984314,65.099236,82.206108,-5.290076
1.080078,-0.766357,-2.000000,-21.236641,-23.053434,-17.946566
-0.371582,0.398926,1.984314,-6.717557,120.770996,1.282443
0.817383,1.342285,1.984314,55.732826,48.404579,-11.832061
-0.034180,0.988525,1.984314,57.748093,-3.145038,-20.068703
0.342773,1.229248,1.984314,44.030533,-17.022902,-25.786259
0.414551,1.234131,1.984314,33.992367,-10.778625,-26.816793
0.210205,1.129883,1.984314,32.938931,8.526717,-26.259542
-0.150635,0.892334,1.984314,37.595421,35.259541,-21.732824
-0.471191,0.495117,1.984314,43.503819,68.809158,-15.824428
-0.631104,-0.039063,1.984314,38.068703,111.000000,-9.236641
-0.493652,-0.559326,1.984314,14.335877,148.946564,-2.534351
-0.015137,-0.953369,0.216553,-16.801527,166.885498,1.664122
-0.236572,-0.774170,1.135498,-3.992366,169.358780,1.358779
0.617187,1.220459,1.984314,29.221375,4.732824,-29.045801
-0.140869,-0.771729,0.606689,-21.496183,186.213745,0.557252
0.511475,-0.921387,-1.210205,-53.755726,149.396942,-2.305344
0.192383,-0.818604,-0.407715,-40.954197,159.022903,-1.748092
0.096436,0.297607,1.848877,10.290076,105.328247,-13.519084
0.912109,0.225830,0.167236,-44.061069,1.687023,-5.000000
0.086914,0.160645,1.354248,-7.526718,100.908394,-10.458015
0.469727,-0.376221,0.149414,-54.633587,87.809158,8.183207
0.928955,0.041504,0.485352,-32.541985,57.625954,-7.488550
0.725830,0.204346,0.596191,0.664122,40.801525,-12.832061
0.665039,0.208008,0.580566,19.763359,37.175571,-15.450381
0.624268,0.068848,0.474121,25.183207,43.015266,-12.206107
0.499512,-0.102051,0.533691,24.396946,71.694656,-7.404580
0.405762,0.083252,0.956543,36.083969,89.870232,-11.610687
0.598633,0.432129,1.000244,40.450382,56.297710,-18.541985
0.552979,0.235596,0.693604,14.320611,88.022903,-7.633588
0.441895,0.324707,1.122559,25.877863,106.259544,-16.229008
0.452881,0.199707,0.767822,-3.816794,103.106873,-7.358778
0.210937,0.241699,1.082275,24.488550,124.511452,-13.465649
0.019043,0.354004,1.407471,26.053434,113.236641,-11.961832
0.193604,-0.373779,0.014160,-29.297710,119.580154,6.297710
-0.064209,0.650879,1.984314,31.022902,133.473282,-9.137404
-0.001709,1.033936,1.984314,40.480915,79.244278,-5.282443
-0.658447,0.153564,1.984314,7.595420,180.305344,10.106871
0.755615,-0.869385,-2.000000,-56.053436,83.160309,2.610687
-0.553711,0.895752,1.984314,56.007633,110.358780,-2.488550
1.272217,0.428467,-1.178223,16.984734,-24.694656,-13.664123
0.548096,-1.028320,-2.000000,-16.045801,74.045799,4.412214
-0.439697,-0.996582,0.115234,5.679389,137.664124,10.083969
-0.872314,-0.620605,1.722656,23.450382,148.450378,9.725191
-1.007324,-0.460449,1.984314,10.465649,143.786255,9.587787
-0.979004,-0.548828,1.780029,-8.763359,133.709930,11.473283
-0.760498,-0.789795,0.718750,-29.496183,107.427483,9.770992
-0.308105,-1.044678,-0.669189,-45.603054,63.748093,5.007634
0.328857,-1.065674,-2.000000,-46.854961,10.442748,-0.603053
0.979980,-0.709717,-2.000000,-31.610687,-40.969467,-7.877862
1.397705,-0.060791,-2.000000,-6.595420,-75.374046,-15.541985
1.176758,-0.340576,-2.000000,-21.274809,-57.076336,-11.954199
-0.874023,-0.378418,1.966553,-16.557251,115.992363,12.137404
0.941406,-0.123779,-1.502197,-23.175573,-70.030533,-11.984733
0.741699,0.898682,0.582764,23.404581,-90.175575,-18.694656
0.668945,0.527100,-0.014160,-5.580153,-96.366409,-10.305344
0.031006,-0.619873,-0.446045,-57.465649,-6.603054,12.221375
0.066895,0.643066,1.984314,1.374046,11.633588,-5.320611
-0.045166,-0.406982,-0.077393,-53.351147,-23.977098,20.412214
0.656738,0.550781,1.155273,-11.183207,-49.687023,-5.610687
-0.041260,0.492187,1.295898,-1.412214,-26.290077,3.244275
-0.114502,0.368164,1.299316,-8.106871,-7.374046,8.137404
-0.077637,0.344482,1.240234,-8.633588,-12.236641,7.015267
0.057617,0.394775,1.160156,-2.251908,-37.725189,3.129771
0.226074,0.326660,0.864502,-2.824427,-63.038166,2.778626
0.164551,0.038086,0.661377,-11.221375,-39.862595,10.198473
0.018066,0.128418,0.978271,0.419847,-7.893130,6.954198
0.215576,0.391846,0.831787,2.343511,-54.458015,0.328244
0.061768,0.087891,0.609131,-8.267176,-31.022902,12.389313
0.190186,0.262695,0.941650,0.519084,-55.435116,-0.549618
0.094971,-0.102783,0.589355,-25.076336,-36.458015,17.198473
0.000732,-0.288574,0.641357,-26.793894,-18.328245,19.389313
0.834473,0.184082,0.382568,-1.000000,-107.717560,0.694656
-0.396973,-0.560791,0.407227,-31.259542,-4.786260,24.709923
-0.382080,-0.147461,1.769531,-8.847328,41.061069,23.770992
-0.107910,-0.894775,-0.475830,-35.091602,-29.152672,22.160305
1.275879,0.609131,-0.878662,58.480915,-157.648849,-5.801527
-0.802979,-0.172852,1.984314,-15.053435,18.419847,29.106871
0.519043,1.590576,1.984314,71.824425,-65.145035,8.427481
1.575195,0.400146,-1.905273,49.671757,-185.977097,-8.488549
1.328857,-0.591064,-2.000000,7.786260,-181.473282,-5.709924
1.001221,-0.938721,-2.000000,-19.549618,-143.114502,-3.832061
0.882568,-1.057129,-1.916992,-27.083969,-110.641220,7.068702
0.994141,-1.010986,-2.000000,-13.786260,-92.862595,11.809160
1.193604,-0.843262,-2.000000,12.160305,-98.320610,10.351145
0.561035,1.186279,1.906006,54.847328,-111.335876,13.870229
-0.202637,1.181885,1.984314,90.702293,-108.885498,21.045801
-0.807861,1.026367,1.984314,113.137405,-107.480919,25.106871
-0.926025,0.583740,1.984314,115.290077,-88.358780,21.687023
-0.492920,1.081055,1.984314,100.580154,-125.656487,9.221375
1.658936,1.275391,-0.169189,5.526718,-191.045807,-4.961832
-0.248779,0.710937,1.984314,41.000000,-28.198473,9.175572
-0.172607,-0.260010,0.701416,-9.488549,60.755726,32.786259
-0.200195,-0.019775,1.411621,-9.862596,34.091602,33.725189
0.385498,0.650391,1.984314,1.083969,-107.786263,13.977099
0.736816,-0.262695,0.220947,-67.862595,-109.396950,21.045801
0.615479,0.493896,1.984314,14.251908,-85.145035,1.893130
0.520752,-0.277588,0.973877,-40.916031,-37.198475,18.984734
1.203369,-0.004883,0.900879,-56.290077,-46.160305,13.244275
1.046143,0.159180,0.752441,-58.847328,-40.305344,16.213741
0.892578,0.090576,0.687256,-58.053436,-33.938931,21.076336
0.775146,-0.092285,0.562500,-54.442749,-27.931297,22.160305
0.594971,-0.264648,0.695068,-42.954197,-12.885496,18.580153
0.461426,-0.076172,1.044189,-13.580153,-20.320610,7.351145
0.655029,0.200195,0.896973,-5.396946,-72.374046,-0.099237
0.686035,-0.041992,0.525391,-24.007633,-51.221375,7.396946
0.589355,0.094971,0.959961,-0.709924,-34.366413,-1.702290
0.764160,0.098389,0.694580,-21.320610,-59.015266,4.213740
0.500488,0.053711,0.954102,2.786260,-17.297710,-0.717557
0.356934,0.121582,1.145752,1.450382,-6.389313,5.702290
0.959473,-0.241943,-0.038086,-43.877861,-30.862595,4.816794
0.010010,0.094971,1.392090,11.083969,49.931297,5.312977
-0.051514,0.258789,1.984314,24.534351,12.801527,14.297709
0.054932,-0.686279,0.310547,-24.671755,60.160305,23.610687
1.648682,0.529053,-1.032471,-23.877863,-135.312973,-4.916030
-0.278809,-0.453369,1.677734,-22.687023,58.549618,28.152672
0.434814,1.306885,1.984314,27.213741,-76.656487,5.251908
1.715576,0.716553,-0.806885,-10.916031,-138.190842,-2.816794
1.862793,-0.134766,-2.000000,-45.503819,-112.106873,2.770992
1.732910,-0.499023,-2.000000,-56.251907,-85.923668,5.877862
1.729004,-0.552490,-2.000000,-55.709923,-82.427483,6.977099
1.869385,-0.462158,-2.000000,-52.992367,-90.152672,6.083970
1.984314,-0.200439,-2.000000,-43.038166,-109.427483,2.480916
1.984314,0.191895,-2.000000,-24.145039,-132.702286,0.488550
1.951416,0.633789,-0.680908,-1.725191,-144.717560,-1.595420
1.572266,0.903564,1.178711,28.893129,-125.175575,-0.725191
0.987305,1.027588,1.984314,42.000000,-85.824425,0.274809
1.309326,1.028076,1.984314,42.824429,-112.671753,-6.236641
1.560791,-0.661133,-2.000000,-49.770992,-61.954197,-0.015267
1.267578,1.155029,1.937744,38.328243,-111.877861,-12.450381
0.622314,0.938477,1.984314,34.519085,-29.312977,-6.954198
0.952393,0.917480,1.984314,27.061069,-64.893127,-14.679389
1.348145,0.204102,0.004395,-25.305344,-109.358780,-13.137404
0.557129,-0.272461,0.416016,-37.244274,47.206108,-0.702290
1.575195,0.311768,0.714111,-4.442748,-59.045803,-13.282443
0.621582,0.400391,1.033447,19.000000,18.183207,-2.885496
0.556152,-0.036377,0.573486,-22.343512,46.236641,12.076336
0.802246,-0.079834,0.438965,-29.755726,35.183205,10.969465
0.883057,-0.032959,0.455078,-32.503819,27.763359,7.740458
0.863525,0.003418,0.643311,-33.618320,34.740459,3.000000
0.899902,0.126465,0.875244,-14.603053,28.053434,-4.114504
1.077148,0.219238,0.714355,0.007634,-1.282443,-11.038168
1.050293,-0.077881,0.403320,-11.938931,22.412214,-2.679389
0.809814,-0.094727,0.770996,4.916030,69.396950,-1.374046
0.928223,0.092285,0.651611,16.351145,27.786259,-3.564885
0.746582,-0.086670,0.560547,17.839695,57.916031,-0.709924
0.950195,0.237549,0.852295,51.679390,10.732824,-13.480916
1.152344,0.447266,0.795654,55.328243,-3.694656,-17.587786
0.385986,0.277344,1.443115,51.793892,88.259544,-3.725191
1.687988,0.788086,1.169189,69.297707,-5.381680,-27.534351
1.539063,0.620117,-0.388428,41.641220,-31.076336,-29.671755
1.222900,1.363037,1.950439,66.824425,42.198475,-29.442749
-0.107422,-0.102051,1.946289,-29.992367,190.870224,-5.770992
1.682617,0.913330,-0.232422,18.870230,7.015267,-39.076336
0.677002,-0.958008,-1.784668,-78.503815,69.137405,-21.435114
-0.586426,-0.220703,1.984314,-61.526718,161.877869,-2.305344
-0.391846,0.659180,1.984314,-29.656488,148.541992,0.862595
0.045898,0.974854,1.984314,-5.755725,122.793892,0.152672
0.199219,1.044189,1.984314,6.893130,120.511452,1.007634
0.052002,1.030029,1.984314,8.145039,134.396942,5.083970
-0.248779,0.901855,1.984314,1.748092,149.610687,8.908397
-0.586426,0.606445,1.984314,-13.633588,157.435120,10.412213
-0.800049,0.109375,1.984314,-37.274811,148.374039,9.129771
-0.761475,-0.499268,1.984314,-59.190838,115.763359,7.931298
-0.365967,-0.972900,0.815186,-68.580154,65.129768,1.213740
-0.418701,-0.892090,1.206787,-73.748093,91.977097,8.122137
-0.542236,-0.131836,1.984314,14.290076,96.106873,1.450382
1.101563,-0.665283,-1.987793,-71.244278,67.145035,5.885496
1.280518,0.250488,-0.718018,-48.022900,-17.381680,-8.603053
1.002441,-0.104248,-0.976807,-53.992367,20.923664,-0.564885
0.181885,-0.571533,0.018066,-26.053434,121.206108,4.702290
0.759033,0.788574,1.749512,18.480917,-8.290076,-19.114504
-0.007568,-0.432861,0.057861,-35.068703,80.824425,8.175572
1.021484,0.200684,0.537109,-32.190838,3.916031,-4.091603
0.645264,0.441895,0.988525,-1.877863,-5.587786,-15.969465
0.447754,0.396484,1.127197,5.106870,1.564885,-12.358779
0.479248,0.387451,1.098877,5.503817,6.687023,-10.442748
0.593750,0.350830,0.930176,3.137405,-3.282443,-10.381680
0.641357,0.140137,0.618408,-7.053435,6.458015,-3.526718
0.458008,-0.098389,0.611084,-7.900764,50.465649,6.839694
0.392090,0.148926,1.008057,13.244275,44.374046,-4.106870
0.550049,0.241699,0.668701,12.030535,4.984733,-3.526718
0.380371,0.048584,0.727051,20.053434,43.343510,-1.038168
0.548340,0.205811,0.923584,22.297710,9.557252,-9.480916
0.349365,-0.046387,0.653320,12.366412,56.641220,-2.557252
0.208740,-0.167725,0.760986,14.961832,76.725189,0.190840
1.046875,0.233643,0.172852,0.045802,-5.374046,-15.221375
-0.205566,-0.611084,0.287842,-8.580153,107.091606,4.740458
-0.250488,-0.467529,1.374512,3.854962,120.618324,3.977099
0.285645,-1.127197,-1.167236,-42.641220,93.320610,9.992367
1.247314,0.923584,0.364258,19.229008,-87.366409,-26.015266
-0.410400,-0.990967,0.677979,-11.511451,118.923668,10.183207
0.006104,1.253662,1.984314,64.053436,-12.679389,-18.320610
1.390381,0.946777,-0.295410,15.404580,-79.923668,-24.175573
1.511963,-0.116211,-2.000000,-24.748091,-43.038166,-17.580153
1.301758,-0.642090,-2.000000,-40.595421,-12.763359,-11.068703
1.236328,-0.768066,-2.000000,-45.236641,-5.175572,-6.419847
1.358398,-0.622803,-2.000000,-34.984734,-36.732826,-8.977099
1.547119,-0.265625,-2.000000,-24.656488,-59.175571,-11.969465
1.643799,0.263428,-2.000000,-9.633588,-77.145035,-16.251909
1.509766,0.884033,-0.774902,10.648855,-81.984734,-18.251909
1.084961,1.319336,1.089600,27.816793,-65.977097,-16.893129
0.414551,1.408691,1.984314,36.893131,-30.610687,-9.702291
0.690918,1.339844,1.984314,30.541985,-60.129772,-11.549619
0.837891,-0.875977,-2.000000,-64.954201,-5.839694,9.427481
0.564209,1.222412,1.984314,33.480915,-67.923668,-12.160305
-0.150391,0.868164,1.984314,21.954199,12.702291,3.824427
0.267334,1.014893,1.984314,19.427481,-17.801527,0.793893
0.777588,0.451416,0.270996,-18.801527,-88.961830,3.183206
-0.053467,-0.449707,0.673096,-43.022900,56.870228,20.007633
0.969482,0.396240,0.675781,-16.992367,-63.076336,0.603053
0.096191,0.361328,1.340088,-0.755725,2.045802,2.183206
-0.034912,-0.135254,0.777100,-27.458015,22.328245,17.129770
0.202881,-0.223633,0.616211,-33.587788,19.106871,14.702291
0.233643,-0.189453,0.654541,-26.259542,11.320611,10.503817
0.198242,-0.064453,0.826904,-12.435115,5.328244,4.938931
0.287842,0.192627,1.058105,5.549618,-22.083969,-5.893130
0.520508,0.281982,0.881836,10.374045,-62.442749,-11.519084
0.500977,-0.019775,0.614502,-1.022901,-36.175571,-0.045802
0.384766,0.081787,0.999023,12.213740,-2.053435,-3.977099
0.521973,0.176758,0.720703,8.145039,-36.618320,-1.816794
0.308594,0.025635,0.674316,14.656488,-5.694656,1.167939
0.532471,0.243408,0.690430,17.396946,-60.190838,-4.809160
0.734619,0.263916,0.516846,21.091602,-80.297707,-7.648855
0.067139,0.437744,1.657959,45.045803,-19.717558,-0.458015
1.220703,0.375488,0.226807,25.496183,-128.114502,-8.404580
1.183838,-0.034668,-1.025879,1.244275,-120.725189,-8.221375
1.299072,0.971924,0.521240,59.312977,-116.839691,-15.534351
-0.531006,0.320801,1.984314,19.557251,84.000000,20.183207
1.495605,0.063232,-1.921631,34.351147,-124.381676,-8.389313
-0.304199,-1.037842,0.127197,-19.992367,15.954199,25.847328
-0.750488,0.473633,1.984314,36.305344,41.977100,29.183207
0.036865,1.215332,1.984314,84.167938,-23.938931,19.206106
0.630615,1.315186,1.984314,101.274811,-63.847328,11.984733
0.785400,1.305176,1.984314,109.236641,-52.152672,9.122137
0.537842,1.226807,1.984314,128.091599,-21.603054,12.633588
0.050537,1.215088,1.984314,133.793900,5.549618,26.450382
-0.449463,1.192627,1.984314,114.404579,37.122139,36.847328
-0.717529,0.803955,1.984314,71.748093,14.587787,30.755726
-0.639893,0.154053,1.984314,10.503817,-18.603054,17.763359
-0.231445,-0.530029,1.553711,-54.419846,-47.541985,12.511451
-0.185059,-0.571045,1.833252,-80.702293,-0.564885,26.137405
0.771973,1.128662,1.984314,6.137404,-32.580154,13.908397
0.227783,-0.942139,0.478027,-73.740456,18.381680,17.183207
1.085938,-0.934814,-0.863281,-45.038166,-79.824425,2.816794
0.811279,-0.783936,-0.319092,-37.625954,-47.534351,10.847328
0.227783,-0.067139,1.466797,-8.977099,50.564884,20.648855
0.740479,0.812256,1.718750,31.267176,-93.702293,7.618320
0.189209,-0.257324,0.019531,-21.870230,-14.427481,23.358778
1.201904,0.512939,0.791992,-12.290076,-106.984734,8.435115
0.675293,0.800781,0.818848,2.748092,-100.984734,7.618320
0.613525,0.633301,1.023682,-9.167939,-76.122139,17.793894
0.714600,0.446533,1.026367,-23.290077,-63.183205,22.297710
0.872559,0.343018,0.910889,-32.625954,-68.580154,18.732824
1.014648,0.188477,0.615479,-42.061069,-70.641220,9.786260
0.957764,-0.119141,0.430420,-45.656490,-48.755726,9.671756
0.808594,-0.034424,0.842285,-18.076336,-29.908398,0.610687
1.022461,0.323486,0.793457,-4.946565,-76.687019,-1.267176
0.995117,0.149658,0.497559,-21.480917,-36.267174,11.259542
1.024658,0.333008,0.860596,-5.572519,-34.274811,-3.412214
1.097168,0.048096,0.458496,-35.244274,-19.099237,11.801527
1.132080,-0.170654,0.276855,-34.732826,-9.213740,6.450382
1.224609,0.698486,1.288330,18.053434,-68.374046,-13.473283
1.112549,-0.278320,-1.051270,-45.435116,-34.442749,5.740458
1.329590,-0.523682,-1.245117,-39.687023,35.267174,-1.381679
1.876709,0.384033,-1.258057,-31.007633,-74.412216,-14.221375
0.146240,1.026123,1.984314,43.786259,-13.908397,-6.480916
1.860107,-0.254883,-2.000000,-51.160305,-25.809160,-6.435114
0.016113,-0.580811,0.999756,-23.938931,93.931297,9.572519
-0.180664,0.705811,1.984314,35.984734,18.351145,-3.152672
0.579102,1.058838,1.984314,46.633587,-56.893131,-15.847328
1.157715,1.027832,1.984314,38.175571,-82.938934,-19.290077
1.368408,1.023193,1.667725,32.427483,-83.961830,-20.320610
1.315430,1.048340,1.825684,34.206108,-78.618324,-18.267176
1.081787,1.057373,1.984314,38.893131,-63.847328,-17.061069
0.684814,1.061279,1.984314,45.534351,-37.022900,-13.076336
0.195801,0.969971,1.984314,50.954197,-2.396947,-7.450382
-0.258545,0.698730,1.984314,45.053436,40.122139,0.030534
-0.543701,0.280273,1.984314,26.435114,86.641220,10.396947
-0.229492,0.736816,1.984314,50.335876,47.572517,6.816794
1.816162,0.364014,-0.968506,3.541985,-94.549622,-15.106871
0.203369,0.785645,1.984314,50.343510,40.938931,3.480916
0.174072,-0.050049,1.822266,16.343512,101.038170,11.496183
0.427979,0.329590,1.984314,33.320610,74.137405,1.824427
1.264404,0.774658,1.391357,32.740459,-41.740459,-13.190840
0.751709,-0.413086,-0.390381,-32.030533,53.893131,1.534351
1.347656,0.628662,1.423828,36.282444,14.839695,-24.320610
0.394287,0.018066,0.731445,20.297710,86.679390,-7.076336
0.882812,-0.189941,0.463623,-2.580153,78.351143,-6.022901
1.074219,-0.039551,0.412598,3.045802,63.763359,-13.732824
1.072510,0.056396,0.497559,6.083970,68.824425,-16.435114
0.960449,0.108398,0.657959,6.175572,90.206108,-17.748091
0.846436,0.280762,0.968018,17.343512,102.320610,-22.694656
0.933838,0.537598,1.005615,26.511450,73.381676,-33.312977
0.945801,0.394287,0.578857,1.984733,72.007637,-29.061069
0.684814,0.267334,0.798584,-6.465649,116.916031,-30.389313
0.754395,0.393066,0.847412,-13.992367,75.770996,-38.183205
0.548828,0.096436,0.686279,-27.343512,96.458015,-29.000000
0.686279,0.253662,1.033691,-11.954199,55.396946,-36.809162
0.821777,0.342773,0.946777,-6.931298,33.946564,-36.343510
-0.065918,0.057129,1.458008,-2.587786,134.053436,-15.503817
1.135010,0.479004,1.015137,21.938931,35.786259,-23.954199
0.889404,0.291504,-0.667236,13.251908,4.312977,-19.625954
0.639160,1.180176,1.558594,65.366409,27.862595,-25.000000
-0.804443,-0.081543,1.984314,-3.236641,173.862595,2.030534
1.240234,0.607422,-0.927002,12.427481,-59.854961,-31.664122
0.034668,-1.081787,-1.255127,-86.229004,51.244274,-2.809160
-0.814941,-0.109131,1.984314,-45.885498,115.396950,12.610687
-0.277100,0.750977,1.984314,-0.946565,87.587784,12.160305
0.260986,1.037842,1.984314,36.206108,54.282444,8.022901
0.468750,1.197510,1.984314,59.488548,44.969467,5.137404
0.375977,1.350830,1.984314,68.885498,53.435116,4.061069
0.084717,1.417236,1.984314,61.587788,74.389313,4.198473
-0.307617,1.236572,1.984314,40.870228,98.816795,8.366412
-0.638916,0.788086,1.984314,10.389313,115.893127,13.671756
-0.779053,0.148682,1.984314,-21.297710,114.587784,14.519084
-0.600342,-0.497803,1.984314,-50.328243,88.091606,9.877863
-0.562500,-0.300781,1.984314,-50.625954,108.916031,12.305344
0.837891,1.415039,1.984314,27.694656,28.480917,-10.091603
-0.253174,-0.562012,1.085938,-70.618324,105.908394,10.916031
0.497070,-0.847900,-1.031494,-72.343513,25.290077,-3.045802
0.224365,-0.778809,-0.290039,-67.770996,61.305344,2.519084
0.081787,0.283203,1.976074,-13.305344,111.251907,-2.740458
0.936768,0.432861,0.463379,-2.725191,-31.862595,-14.877863
-0.030273,0.136475,1.343018,-16.862595,94.290077,1.549618
0.462646,-0.218750,0.139160,-38.251907,31.366413,2.396947
0.825684,0.315186,0.606689,-8.091603,6.236641,-15.282443
0.584473,0.449951,0.755127,3.809160,-4.389313,-15.809160
0.451660,0.445557,0.999268,2.160305,-8.229008,-15.778625
0.560791,0.289063,0.845215,-6.412214,-9.496183,-10.854961
0.547363,0.026855,0.646240,-16.183207,16.580153,-2.488550
0.353271,-0.059082,0.824219,-11.175572,57.267174,0.694656
0.361328,0.299805,1.130127,8.648855,33.099236,-10.916031
0.427734,0.234863,0.676025,-3.419847,15.358779,-2.839695
0.239258,0.133545,0.928955,9.656488,44.190838,-4.526718
0.417480,0.267334,0.936035,-1.297710,4.450382,-6.343512
0.204590,0.044434,0.863037,3.167939,46.305344,-2.923664
0.047119,-0.018555,1.109131,-3.824427,58.549618,0.641221
0.862305,0.001221,-0.035156,-44.465649,15.053435,3.053435
-0.327881,-0.298096,1.163818,-5.931298,104.847328,2.847328
-0.332764,0.041504,1.984314,22.496183,85.358780,2.427481
-0.183105,-0.928223,0.253174,-23.488550,122.152672,15.580153
1.426025,0.385254,-0.912598,-23.145039,-62.290077,-13.312977
-0.684570,-0.297852,1.984314,23.923664,107.473282,6.824428
0.758301,1.436279,1.984314,44.702290,-63.045803,-21.893129
1.572266,0.259033,-1.992920,-22.839695,-24.038168,-14.007633
1.022217,-0.692627,-2.000000,-38.931297,63.145039,-2.702290
0.469727,-0.977783,-1.815674,-37.427483,101.290077,2.106870
0.254639,-1.059326,-1.409424,-38.038166,105.832062,3.977099
0.337158,-1.088379,-1.673340,-45.755726,79.068703,2.229008
0.629883,-1.025391,-2.000000,-46.221375,57.068703,-0.404580
1.021484,-0.819092,-2.000000,-42.358780,24.244274,-5.503817
1.381104,-0.457764,-2.000000,-30.099237,-12.816793,-10.320611
1.572266,0.102539,-2.000000,-7.267176,-45.015266,-16.206106
1.459473,0.723145,-0.827148,21.099237,-63.175571,-21.633587
1.407715,0.368896,-1.441406,4.709924,-49.938931,-18.022902
-0.461426,-0.702637,0.211914,-9.977099,130.786255,8.557252
1.103027,0.262695,-0.713867,-4.213740,-57.427483,-15.816793
0.694824,0.932373,1.454834,44.038166,-73.129768,-19.541985
0.763916,0.534424,0.485107,22.709923,-76.351143,-13.038168
0.180420,-0.602051,-0.561035,-34.610687,23.488550,6.824428
0.208496,0.719238,1.906494,36.274811,19.511450,-14.526717
0.014893,-0.401611,-0.077393,-24.908398,18.053434,14.496183
0.757812,0.530762,0.849121,8.450381,-29.679390,-11.114504
0.173584,0.611816,1.127197,16.908398,-24.175573,-9.366412
0.068115,0.497070,1.243408,10.015267,-13.328244,-2.587786
0.120605,0.465332,1.177490,5.465649,-22.091602,-0.900763
0.271973,0.448242,0.981689,-0.587786,-42.625954,0.496183
0.349854,0.243408,0.649414,-16.374046,-42.786259,8.473283
0.191650,0.011475,0.643799,-30.977098,-2.328244,16.809160
0.174072,0.295410,0.989502,-24.893129,-8.122137,6.419847
0.337158,0.307373,0.614502,-35.671757,-47.129772,10.190840
0.165283,0.125977,0.760498,-35.412212,-14.297709,12.251908
0.359131,0.261719,0.831543,-42.740459,-47.908398,9.374045
0.149170,0.001953,0.759521,-47.488548,-2.557252,15.061069
-0.002441,-0.048584,0.950928,-41.893131,9.473283,15.175572
0.803223,-0.056152,0.012939,-48.709923,-65.412216,3.786260
-0.337158,-0.216309,1.143311,-37.679390,44.702290,8.793893
-0.318604,0.171143,1.984314,-12.473283,47.740459,4.435114
-0.268311,-0.807617,0.346191,-63.656490,42.801525,8.564885
1.357910,0.132568,-1.418945,-8.687023,-142.541992,-24.664122
-0.794678,-0.138184,1.984314,-22.870230,65.343513,9.213740
0.759766,1.270020,1.976563,46.458015,-89.687019,-18.702290
1.447510,-0.089111,-2.000000,-2.236641,-147.419846,-23.221375
0.908203,-0.923828,-2.000000,-32.305344,-101.022903,-14.480916
0.455322,-1.088135,-1.666016,-35.251907,-64.679390,-7.641222
0.345947,-1.064941,-1.287109,-27.526718,-52.969467,-5.122138
0.502686,-1.043701,-1.615479,-19.969465,-56.603054,-4.938931
0.833496,-0.938721,-2.000000,-7.427481,-75.106873,-8.183207
1.266846,-0.651855,-2.000000,20.702290,-118.717560,-18.595419
1.625000,-0.134766,-2.000000,39.572517,-134.633591,-24.389313
1.708984,0.499268,-2.000000,46.244274,-125.053436,-21.870230
1.407715,1.031494,-0.117920,41.977100,-88.251907,-13.580153
1.395020,0.658203,-0.345947,22.122137,-109.030533,-11.740458
0.246582,-1.319580,-1.252441,-62.946564,-30.931297,12.770992
0.989746,0.698486,1.103760,51.519085,-116.183205,-1.694656
0.192139,0.859619,1.984314,80.870232,-36.557251,16.206106
0.470703,0.917236,1.984314,102.984734,-71.656487,13.587787
0.696289,0.225342,-0.221436,64.900764,-125.648857,16.000000
-0.091064,-0.038330,0.703369,48.389313,19.740458,28.183207
0.920410,0.534180,0.524902,57.488548,-108.091606,12.244275
0.167725,0.696289,1.448730,49.938931,-38.137405,15.709924
0.113525,0.114502,0.946289,-8.022901,-40.984734,29.099237
0.512695,-0.073730,0.957031,-33.687023,-34.251907,25.603054
0.529541,-0.153564,0.962402,-30.366413,-21.633587,27.931297
0.433838,-0.012451,1.081055,-10.206107,-12.305344,30.274809
0.423584,0.367432,1.194092,1.389313,-27.595419,20.916031
0.633057,0.543457,1.038574,-14.007633,-74.267174,10.068703
0.765625,0.196533,0.715332,-54.053436,-70.312981,13.007633
0.666260,0.064697,1.141846,-49.068703,-17.748091,16.259542
0.805420,0.133057,1.095459,-46.763359,-49.061069,14.152672
0.632080,-0.065186,0.840332,-49.320610,-4.038168,19.114504
0.577637,0.250488,1.160889,-17.671755,-42.076336,10.167939
0.550293,0.468262,1.192627,-14.717557,-66.206108,9.251908
0.142090,-0.241455,0.794434,-24.778625,9.786260,26.763359
0.866211,0.825195,1.984314,12.190840,-88.358780,8.740458
0.700928,0.916016,1.958008,-13.320611,-114.969467,9.931297
-0.211182,0.555176,1.984314,9.969465,-7.015267,11.893129
0.756348,-0.788574,-1.971191,-72.656487,61.015266,21.687023
-0.081787,0.905518,1.984314,31.885496,-97.603050,5.274809
1.880615,0.374023,-1.333984,-45.458015,-145.717560,-3.351145
1.499268,-0.810547,-2.000000,-65.152672,-18.244274,6.160306
0.554443,-0.877441,-0.509766,-44.167938,49.931297,10.053435
-0.041504,-0.710449,0.979004,-30.664122,73.648857,11.870229
-0.256348,-0.685303,1.424316,-22.366413,65.015266,15.183207
-0.132812,-0.778076,1.120117,-21.190840,47.977100,19.251909
0.276855,-0.967041,0.194092,-31.312977,37.702290,24.465649
0.905518,-1.125488,-1.180420,-50.480915,27.206106,25.030535
1.529785,-0.994385,-2.000000,-62.862595,6.022901,18.328245
1.976074,-0.422607,-2.000000,-54.396946,-48.076336,11.328244
1.984314,0.357178,-1.879883,-26.442749,-121.946564,7.572519
1.984314,0.104736,-1.849121,-37.412212,-107.099236,7.709924
0.336914,-1.021240,0.620605,-25.954199,65.503815,29.786259
1.746826,0.483887,-0.529297,-26.740458,-126.282440,-1.954198
1.048096,1.053955,1.893066,16.427481,-117.328247,-9.206107
1.090332,0.859619,1.348145,9.610687,-126.488548,-10.610687
1.064209,0.004395,-0.504395,-43.564884,-83.977097,-5.282443
0.418457,-0.103760,1.128906,-2.809160,27.587786,-6.564886
1.389404,0.151855,0.517090,-25.732824,-109.381676,-9.557252
0.579346,0.318848,1.234375,16.007633,-34.702290,-10.778625
0.518799,-0.231689,0.602783,-21.778625,-4.854962,2.343511
0.851807,-0.340576,0.416260,-37.763359,0.106870,2.687023
0.817627,-0.333008,0.439209,-31.458015,5.053435,8.000000
0.697754,-0.213867,0.571289,-15.045801,2.770992,12.854961
0.642822,0.016602,0.902588,6.335878,-9.251908,9.022901
0.800781,0.257568,0.929687,20.671755,-49.465649,4.854962
0.999512,0.150146,0.543457,3.969466,-60.702290,11.137404
0.839844,-0.027832,0.634277,-3.969466,-9.618320,18.351145
0.929199,0.235840,0.814453,9.534351,-41.564884,9.687023
0.891846,-0.027100,0.511475,-8.755725,-21.625954,21.854961
0.840820,0.137451,0.856445,28.854961,-28.198473,8.030535
0.784912,0.312256,1.011963,37.938931,-26.343512,6.282443
0.518066,-0.543701,0.171875,2.106870,21.709923,27.519083
0.740723,0.717041,1.984314,79.748093,9.793893,12.633588
0.705078,0.984619,1.984314,86.068703,-48.984734,17.091602
0.014893,0.417725,1.984314,60.435116,58.511452,29.496183
1.419189,-0.758057,-2.000000,-19.274809,-23.068703,15.450381
0.267578,0.992432,1.984314,65.442749,31.183207,14.282443
1.984314,0.491699,-1.278809,30.503817,-93.732826,-10.236641
1.462891,-0.947754,-2.000000,-27.969465,-2.114504,3.274809
0.424316,-0.946289,-0.345703,-41.809162,61.038166,10.458015
-0.074463,-0.719727,1.323486,-40.038166,96.755722,10.862596
-0.226562,-0.656006,1.983398,-39.526718,111.137405,7.625954
-0.217041,-0.731689,1.848145,-44.358780,114.519081,5.198473
-0.085449,-0.917236,1.126221,-52.190838,106.213737,1.610687
0.247803,-1.139160,-0.011230,-54.564884,86.274811,-5.770992
0.740479,-1.290283,-1.337891,-50.870228,55.083969,-13.404580
1.326172,-1.196289,-2.000000,-40.007633,12.862596,-22.564886
1.827148,-0.798584,-2.000000,-17.374046,-18.183207,-31.541985
1.478027,-1.014404,-2.000000,-33.389313,10.770992,-22.961832
-0.327393,-0.055908,1.984314,-0.877863,157.297714,-1.061069
1.323242,-0.729248,-1.974609,-27.580153,-7.137404,-23.267176
1.459229,0.237549,-0.711426,10.770992,-44.885498,-30.213741
1.230957,-0.081299,-0.902100,-7.320611,-30.320610,-23.824427
0.449951,-0.630859,-0.221191,-29.824427,85.419846,-6.297710
0.831055,0.650146,1.738281,48.534351,55.900764,-27.038168
0.263916,-0.535889,-0.251953,-24.534351,54.488548,-0.496183
1.173340,0.282715,0.620850,12.908397,6.763359,-23.580153
0.563721,0.413086,0.896729,28.564886,22.038168,-18.725191
0.408203,0.285645,0.995605,21.358778,41.893131,-10.709924
0.437988,0.256104,0.953857,23.572519,40.137405,-10.015267
0.567139,0.334717,0.876221,30.946566,20.587786,-14.740458
0.707520,0.278564,0.620850,34.549618,-1.908397,-15.061069
0.659912,-0.003418,0.411865,29.183207,20.664122,-6.221374
0.457520,0.005127,0.685059,29.977098,57.099236,-2.801527
0.607178,0.351807,0.607422,27.648855,12.038168,-10.435115
0.511963,0.124268,0.310547,1.213740,27.167938,1.732824
0.567627,0.237061,0.776855,6.702290,8.984733,-7.450382
0.648926,-0.057861,0.388672,-22.702290,1.167939,4.183206
0.723877,-0.277832,0.296631,-20.450382,9.099236,3.236641
1.288818,0.522705,0.952637,39.351147,-36.465649,-19.687023
1.145508,-0.136230,-0.851807,-18.435114,-7.839694,1.000000
1.201416,-0.516113,-1.475830,-13.839695,61.641220,-5.709924
1.642822,0.569336,-0.846436,0.488550,-45.816795,-24.526718
-0.193115,0.821533,1.984314,76.091606,17.198473,-25.061069
1.659180,-0.119629,-2.000000,-38.954197,9.603053,-15.702291
-0.239990,-0.784180,1.037842,12.908397,113.717560,-6.938931
-0.294678,0.730225,1.984314,55.007633,6.633588,-28.351145
0.516846,1.364746,1.984314,40.389313,-55.022900,-39.931297
1.027344,1.451660,1.984314,19.534351,-59.358780,-45.534351
1.110596,1.484131,1.897949,9.549619,-53.633587,-50.702290
0.914062,1.526123,1.984314,16.519083,-37.526718,-52.129772
0.485840,1.462402,1.984314,19.778625,-19.725191,-51.893131
-0.077148,1.292969,1.984314,22.541985,6.984733,-46.465649
-0.590576,0.870850,1.984314,24.366413,44.847328,-36.511452
-0.841309,0.190918,1.984314,10.038168,78.305344,-25.053434
-0.669678,-0.445557,1.984314,-12.580153,101.778625,-18.946566
-0.605957,-0.069580,1.984314,7.236641,91.709923,-28.167938
1.116455,1.375732,1.635010,9.267176,-75.595421,-58.832062
-0.414551,-0.251465,1.886719,-5.099236,121.877861,-26.618320
0.068115,-0.917725,-0.296631,-48.549618,130.137405,-15.145039
-0.120117,-0.659424,0.606201,-34.824429,120.000000,-16.931297
0.220459,0.515625,1.984314,12.519084,25.450382,-34.580154
0.711914,-0.138428,-0.023193,-46.160305,-32.206108,-15.870229
0.324219,0.238770,1.926758,13.381680,34.259541,-27.641222
0.226318,-0.558594,0.479248,-29.564886,53.480915,-0.282443
0.875732,-0.208496,0.580322,-25.725191,34.923664,-6.862596
0.748535,0.062744,0.507568,-10.534351,19.748091,-10.358779
0.636230,0.143799,0.506592,-15.442748,18.572519,-10.091603
0.503418,0.008301,0.494873,-28.366413,26.007633,-5.244275
0.344727,-0.117188,0.738525,-31.541985,44.129772,-1.786260
0.344727,0.113770,1.125244,-14.938931,26.381680,-10.083969
0.595703,0.234619,0.934570,-9.816793,-16.740458,-14.603053
0.505127,-0.056396,0.772217,-10.244275,24.106871,-4.916030
0.555176,0.183105,1.216309,8.450381,20.358778,-19.687023
0.520020,0.097900,0.806152,-11.305344,32.877861,-6.977099
0.366699,0.296143,1.246338,11.488549,38.770992,-16.099237
0.269287,0.493652,1.460938,7.854962,25.671755,-12.328244
-0.020508,-0.435791,0.558350,-36.488548,78.946564,14.702291
0.398438,0.830078,1.984314,27.312977,31.267176,-6.786260
0.417236,1.052979,1.984314,36.251907,-29.984734,2.122137
-0.362061,0.701904,1.984314,44.748093,71.274811,18.748091
0.198486,-1.139893,-1.304199,-40.305344,70.931297,36.068703
0.273438,1.386719,1.984314,71.862595,11.312977,15.854961
1.281006,-0.200439,-2.000000,-13.412213,-47.694656,21.045801
-0.166016,-0.803223,-0.552734,-36.778625,70.213737,42.809162
-0.850586,-0.029785,1.984314,-15.229008,99.305344,45.030533
-0.854248,0.473877,1.984314,-2.625954,88.335876,41.587788
-0.773926,0.521729,1.984314,1.213740,75.412216,42.274811
-0.784912,0.277100,1.984314,0.312977,91.633591,44.083969
-0.853271,0.015869,1.984314,4.099236,107.702293,49.541985
-0.874268,-0.308594,1.984314,2.000000,111.679390,51.656490
-0.715088,-0.695312,1.968750,-18.847328,95.076332,50.381680
-0.300293,-1.007324,0.196777,-29.725191,56.580154,42.969467
0.352539,-1.112793,-1.510254,-26.099237,-2.404580,31.282442
0.093262,-1.087158,-0.732666,-27.809160,24.473282,34.801525
-0.144531,1.062988,1.984314,63.748093,41.328243,25.366413
0.267822,-1.012207,-0.889648,-27.152672,31.725191,37.015266
1.004395,-0.546875,-1.398438,-9.404580,-47.374046,22.343512
0.603760,-0.616699,-0.960693,-21.312977,-4.992366,29.061069
-0.017578,-0.116455,1.164551,11.358779,73.290077,29.015266
0.870117,0.744141,0.705322,43.343510,-77.488548,7.595420
-0.161377,-0.035645,0.715576,9.496183,22.343512,26.755726
0.722168,0.015625,0.000244,-4.473282,-64.641220,16.480917
0.929199,0.467041,0.638916,17.251909,-84.641220,1.549618
0.752930,0.407959,0.909424,20.954199,-74.053436,1.435115
0.711426,0.265869,1.134033,22.045801,-42.961834,3.503817
0.632812,0.182861,0.848145,22.145039,-24.038168,7.030534
0.507568,0.142578,0.467041,14.839695,-22.526718,12.465649
0.359863,0.180664,0.735352,14.748092,-4.221374,9.610687
0.474121,0.459229,0.922363,14.305344,-38.381680,-2.160305
0.636230,0.372314,0.444824,-8.083969,-60.450382,4.526718
0.484863,0.354980,0.780762,-5.977099,-17.106871,5.496183
0.656006,0.333740,0.856689,-10.389313,-45.465649,3.480916
0.456055,-0.113281,0.992187,-5.458015,2.961832,6.969466
0.280518,-0.241211,1.308838,10.618320,17.312977,13.946565
0.927490,-0.461182,0.165527,23.442749,-48.480915,8.290076
-0.021240,-0.006348,1.906494,70.244278,74.076332,16.801527
0.005859,0.555176,1.984314,109.641220,77.267174,15.893129
-0.345215,-0.368896,1.724854,55.312977,85.458015,27.770992
1.332764,-0.201416,-2.000000,66.931297,-100.870232,3.763359
-0.667969,0.509521,1.984314,35.648853,103.129768,42.740459
-0.418701,1.106689,1.984314,78.076332,-48.137405,22.389313
1.035400,1.404541,0.836426,17.969465,-129.007629,17.091602
1.643799,0.766602,-1.964600,-25.129770,-100.931297,21.595419
1.738037,0.369385,-2.000000,-44.389313,-79.809158,23.625954
1.801514,0.234131,-2.000000,-60.267174,-78.648857,21.015266
1.894775,0.308838,-2.000000,-71.290077,-96.259544,12.587787
1.926270,0.602295,-1.953369,-72.458015,-120.969467,4.458015
1.752197,1.087891,-0.490479,-69.526718,-139.816788,3.664122
1.322266,1.476563,1.448975,-55.091602,-142.641220,-0.351145
0.574463,1.472656,1.984314,-37.580154,-121.801529,-8.564885
-0.189453,1.198975,1.984314,-36.320610,-43.885498,2.938931
0.057617,1.248779,1.984314,-36.679390,-52.396946,2.221374
1.478271,-0.291016,-1.798096,-107.419846,-34.603054,13.572519
-0.043701,0.813232,1.984314,1.893130,-60.381680,10.931297
-0.314453,-0.018799,1.984314,11.679389,1.679389,26.908398
0.027588,0.375977,1.984314,30.030535,-50.519085,25.977098
0.840088,0.797607,1.437988,5.641222,-147.725189,20.068703
0.374023,-0.415527,0.074707,-63.053436,-6.038168,35.610687
0.950684,0.503174,1.588379,-18.969465,-84.000000,18.862595
-0.048828,-0.346680,0.834229,-34.274811,-2.511450,33.007633
0.492676,-0.647461,0.701172,-46.633587,-35.687023,34.427483
0.791504,-0.446777,0.604492,-28.809160,-79.175575,26.435114
0.936035,-0.276855,0.665527,-11.007633,-91.587784,24.305344
0.957764,-0.176514,0.785645,-5.221374,-65.969467,25.328245
0.874023,-0.014648,1.018066,-2.305344,-33.015266,24.351145
0.900146,0.247070,1.051270,1.633588,-45.358780,15.816793
0.979736,0.134521,0.535156,-22.358778,-60.862595,18.908398
0.738770,-0.108643,0.592529,-22.068703,-10.335877,22.923664
0.868164,0.193848,0.832520,-7.076336,-59.854961,3.839695
0.853516,-0.067627,0.507812,-17.854961,-44.534351,14.893129
0.900146,0.203613,0.900391,14.816793,-64.633591,-8.267176
0.948975,0.485840,0.977295,22.106871,-67.335876,-5.259542
0.369385,-0.258057,0.428711,-13.618320,24.916031,13.129771
1.113037,0.956299,1.984314,37.946564,-48.114502,-8.519084
0.923340,1.005859,1.440918,24.816793,-110.625954,-4.229008
0.195068,0.838379,1.984314,36.893131,-16.801527,5.167939
0.911133,-1.069336,-1.295898,-48.801525,22.061069,13.916031
0.653076,1.252930,1.984314,38.763359,-56.480915,-3.396947
1.984314,-0.085693,-2.000000,-22.381680,-90.076332,-11.832061
1.061035,-1.249023,-1.766602,-47.381680,36.076336,7.465649
0.019287,-0.907227,0.728760,-26.679390,82.778625,16.091602
-0.333252,-0.388672,1.984314,-15.099236,80.374046,17.702290
-0.373047,-0.222656,1.984314,-15.488549,85.335876,18.984734
-0.321533,-0.452637,1.984314,-25.793894,92.396950,18.045801
-0.212158,-0.808350,1.529053,-37.748093,89.236641,11.992367
0.062500,-1.125977,0.268066,-42.343510,70.900764,8.053435
0.540039,-1.340088,-1.125732,-40.687023,40.030533,5.045802
1.128906,-1.320801,-2.000000,-34.595421,-1.015267,-0.580153
1.677979,-0.962402,-2.000000,-18.320610,-46.648853,-5.877862
1.360596,-1.102295,-2.000000,-27.175573,-15.221375,2.916031
-0.215820,0.236572,1.984314,30.916031,79.114502,17.236641
1.388184,-0.796875,-1.783691,-23.770992,-28.496183,-0.267176
1.666504,0.060059,-0.855957,6.488550,-88.442749,-11.137404
1.446289,-0.193848,-0.843018,-11.106871,-51.580154,-9.633588
0.828613,-0.466553,0.203369,-16.801527,83.984734,-1.961832
1.235596,0.650146,1.744385,54.152672,12.435115,-18.274809
0.654297,-0.483887,-0.143066,-19.595419,46.503819,-3.954198
1.619141,0.244873,0.824707,27.221375,-7.541985,-30.541985
0.992432,0.481201,0.829834,46.618320,20.954199,-33.412212
0.851074,0.352295,1.001221,42.702290,49.900764,-33.335876
0.890137,0.330322,1.013428,44.595421,54.038166,-38.732826
0.998047,0.385742,0.908447,51.816795,39.625954,-46.664124
1.104492,0.313232,0.601318,49.114502,21.557251,-52.083969
1.035400,0.046387,0.469727,37.557251,52.496181,-51.519085
0.836182,0.105957,0.922607,54.106869,97.969467,-57.885498
0.943115,0.324463,0.841309,64.679390,57.351147,-63.167938
0.729980,0.051758,0.557617,57.931297,88.137405,-49.748093
0.729004,0.215088,0.906006,86.519081,82.122139,-59.206108
0.611572,-0.132324,0.435791,65.893127,97.877861,-41.519085
0.447266,-0.226318,0.221680,65.022903,123.709923,-34.404579
0.971924,0.446777,0.256348,88.511452,42.969467,-46.458015
-0.190918,-0.513428,-0.490967,24.160305,105.312981,-21.839695
-0.157471,-0.502441,0.833252,23.534351,142.083969,-23.977098
0.423340,-0.933594,-1.585205,6.366412,14.992367,-27.877863
0.935547,1.047607,0.634033,93.213737,-36.175571,-31.068703
-0.030762,-1.035156,-0.074951,5.343512,44.603054,-10.519084
-0.339600,0.968994,1.984314,75.328247,109.931297,1.251908
1.007080,1.107666,0.779785,114.320610,8.854961,-10.419847
1.541748,0.399902,-1.737305,123.557251,-45.732826,-12.267176
1.615234,0.142334,-2.000000,141.450378,-65.679390,-10.213740
1.689209,0.460205,-2.000000,155.030533,-76.274811,-7.839694
0.118408,1.590332,1.984314,141.526718,-56.473282,-2.519084
-0.295410,1.402100,1.984314,121.053436,-20.129770,-5.557252
-0.658203,0.688232,1.984314,100.503815,36.862595,0.687023
-0.627441,-0.225342,1.984314,81.648857,92.320610,13.725191
0.038818,-0.708496,0.577148,55.702290,106.160309,21.572519
1.124512,-0.525879,-2.000000,24.824427,77.419846,14.633588
1.104004,-0.462891,-1.929199,15.595420,94.068703,13.503817
-0.346436,0.496338,1.984314,76.419846,50.000000,4.458015
1.261719,0.008789,-2.000000,-18.167938,56.587788,-3.083969
1.203369,0.982666,-0.448486,-2.145038,-71.625954,-15.152672
1.095703,0.844971,-0.414795,-9.992367,-55.633587,-14.519084
0.696533,0.007324,-0.848633,-16.167938,51.854961,-7.511450
0.410645,0.683594,1.959717,64.740456,52.198475,-18.832062
0.760498,0.259766,-0.352295,-6.923664,-11.061069,-4.702290
0.729980,0.961670,1.435303,50.076336,-12.206107,-26.244274
0.092285,0.520508,0.973145,37.885498,28.114504,-12.335877
0.322266,0.260498,0.849854,13.770992,48.083969,-8.152672
0.328125,0.175293,0.643066,6.183206,54.763359,-10.442748
0.267334,0.258057,0.673584,14.923664,47.381680,-8.396947
0.338867,0.479492,0.803711,23.374046,9.099236,-8.534351
0.580811,0.606445,0.599121,12.236641,-36.725189,-10.809160
0.639160,0.416016,0.492187,-10.656488,-13.511451,-6.473282
0.515381,0.595459,0.976807,1.648855,13.106871,-12.236641
0.676514,0.736328,0.767090,-22.641222,-26.900763,-16.931297
0.527588,0.588135,0.664551,-38.786259,12.320611,-14.755725
0.689453,0.711914,0.758545,-58.519085,-36.061069,-20.137405
0.766602,0.720215,0.739014,-61.396946,-44.122139,-16.770992
-0.055908,0.118408,1.035889,-49.778625,56.992367,4.404580
1.066162,0.989746,1.861816,-28.961832,-60.137405,-13.648855
0.870850,1.116943,0.893311,-29.625954,-101.282440,-15.541985
0.177490,1.357422,1.984314,2.770992,-33.183205,-13.305344
0.291504,-0.472412,-0.559082,-107.984734,84.946564,5.167939
0.663818,1.475098,1.984314,-31.343512,-46.587788,-18.748091
1.611328,0.013184,-2.000000,-141.625961,-41.099236,-6.419847
0.250488,-0.525391,-0.887207,-159.412216,83.480919,16.503817
-0.549805,-0.046143,1.984314,-125.564888,108.793892,17.984734
-0.675537,0.280029,1.984314,-101.351143,94.190842,12.816793
-0.669922,0.361328,1.984314,-88.221375,87.045799,8.916031
-0.709473,0.256348,1.984314,-83.290077,95.687019,8.702291
-0.748779,-0.007324,1.984314,-91.534348,108.824425,12.396947
-0.696777,-0.358398,1.984314,-107.480919,117.557251,17.381680
-0.447998,-0.758545,1.056396,-131.381683,100.068703,20.206106
0.021729,-1.004395,-0.641846,-137.297714,63.175571,20.358778
0.635254,-0.931885,-2.000000,-130.816788,9.870229,15.099236
0.271729,-0.849854,-1.415527,-129.030533,33.068703,19.641222
-0.312256,1.068359,1.984314,-39.938931,38.549618,7.068702
0.329102,-0.834473,-1.237793,-137.664124,30.450382,14.770992
1.015381,-0.410645,-1.459473,-118.465652,-59.160305,2.259542
0.670898,-0.652588,-1.016602,-115.458015,-14.412213,12.496183
0.016113,-0.336670,1.145264,-63.328243,78.312981,14.206107
0.937500,0.585449,1.284912,-17.335878,-57.633587,-7.679389
-0.175781,-0.229736,0.839600,-46.473282,53.000000,15.083969
0.678955,0.020508,0.197266,-57.725189,-21.893129,7.015267
0.733887,0.480713,0.734619,-30.778625,-52.282444,-7.396946
0.608154,0.430176,0.944336,-25.213741,-66.648857,-8.664123
0.672119,0.287109,0.968994,-25.396946,-54.824429,-7.404580
0.760498,0.193604,0.857666,-16.809160,-39.748093,-5.557252
0.652100,0.037598,0.623047,-20.091602,-11.427481,1.916031
0.391113,0.019531,0.820557,-21.534351,29.519083,6.862596
0.391113,0.391846,1.013428,-11.480916,1.908397,-4.946565
0.520264,0.285645,0.604736,-30.770992,-30.519083,-1.381679
0.405273,0.128418,0.911621,-24.206106,5.030534,-4.702290
0.607666,0.220703,0.963867,-26.274809,-25.083969,-9.488549
0.334961,0.025391,0.871826,-32.335876,29.809160,-1.374046
0.134521,0.038330,1.170166,-32.633587,47.557251,1.290076
0.792969,-0.189697,-0.000244,-56.106869,-19.206106,-3.656489
-0.220703,0.092773,1.617920,-35.496181,86.450378,3.503817
-0.156250,0.548096,1.984314,-13.664123,82.114502,0.045802
-0.431885,-0.531250,1.585938,-68.488548,92.778625,10.984733
1.391602,-0.469238,-2.000000,-39.893131,-104.961830,-22.236641
-0.589111,0.101563,1.984314,-15.526717,104.091606,7.534351
1.343994,0.965332,0.479492,37.045803,-59.122139,-25.870230
1.266113,-0.476318,-2.000000,-20.885496,-88.152672,-24.977098
0.412354,-1.072754,-1.668213,-53.633587,-51.015266,-13.458015
-0.027588,-1.177734,-0.226562,-55.015266,-20.259542,-6.702290
-0.110107,-1.263184,0.208984,-43.389313,-4.557252,-4.022901
0.011230,-1.341309,-0.216309,-25.778625,-7.328244,-3.496183
0.301270,-1.354004,-1.197510,-7.274809,-26.259542,-4.282443
0.724854,-1.174561,-2.000000,14.946565,-60.183205,-6.465649
1.224854,-0.715820,-2.000000,41.053436,-96.816795,-12.717557
1.620850,-0.018799,-2.000000,56.618320,-118.946564,-17.221375
1.739746,0.722412,-2.000000,60.412212,-113.282440,-18.152672
0.407227,1.496338,1.984314,41.343510,-123.251907,-20.297710
1.358154,-0.478271,-2.000000,-52.687023,-24.335878,3.496183
0.503906,1.251221,1.984314,43.969467,-125.412216,-19.824427
-0.059082,0.589600,1.984314,54.572517,-44.938931,-6.595420
0.298340,0.786621,1.984314,53.053436,-73.625954,-7.572519
0.937744,0.541992,0.543945,1.129771,-113.480919,2.251908
0.073975,-0.302979,0.172119,-15.229008,34.702290,17.503817
1.073486,0.672852,0.809570,-20.473282,-97.068703,6.763359
0.167236,0.518311,1.012207,-13.809160,-46.824429,4.946565
0.289063,-0.057373,0.548828,-65.366409,-28.244274,22.198473
0.560791,-0.302002,0.469727,-93.145035,-23.091602,26.503817
0.575439,-0.442627,0.569092,-87.740456,-12.145039,30.251909
0.452148,-0.360596,0.846924,-52.534351,-3.007634,31.351145
0.421387,0.020020,1.081299,-4.297710,-32.381680,23.160305
0.612061,0.260742,0.749512,3.267176,-85.396950,16.160305
0.635498,-0.052490,0.479248,-31.770992,-60.572517,20.717558
0.491943,-0.092041,0.943359,-33.427483,-36.595421,18.274809
0.659180,0.014160,0.714355,-48.908398,-77.206108,19.755726
0.498291,-0.120117,0.860840,-34.106869,-43.511452,14.923664
0.740479,0.100586,0.908447,-31.801527,-108.519081,10.259542
0.978516,0.175049,0.791260,-28.114504,-116.366409,10.190840
0.259521,0.140381,1.617432,-2.809160,-57.343510,20.541985
1.516846,0.312988,0.935547,-26.152672,-158.137405,17.351145
1.493164,0.097656,-0.251953,-45.992367,-146.259537,9.297709
1.265869,1.011963,1.949463,6.465649,-162.885498,3.839695
0.076172,-0.548828,1.984314,-15.007633,45.931297,35.984734
1.885010,0.657227,0.077148,-18.839695,-135.740463,-0.259542
1.181641,-1.282715,-1.785400,-66.946564,34.519085,22.526718
-0.240967,-0.609131,1.984314,-14.297709,68.244278,28.053434
-0.307373,0.364502,1.984314,26.656488,4.603054,17.526718
-0.019531,0.764648,1.984314,38.259541,-15.274809,9.312977
0.114746,0.921387,1.984314,45.832062,-23.801527,4.183206
0.016357,0.883301,1.984314,43.511452,-7.129771,7.358778
-0.129883,0.637207,1.984314,33.358780,19.389313,12.526717
-0.251709,0.203613,1.984314,16.763359,46.793892,14.992367
-0.226807,-0.310547,1.984314,-3.832061,67.664124,15.389313
0.037354,-0.798340,1.371338,-25.244274,66.893127,14.320611
0.545654,-1.102051,-0.583740,-41.984734,49.106869,9.633588
0.244141,-1.000488,0.221436,-30.114504,66.618324,14.824428
0.491699,1.093750,1.984314,53.167938,-54.351147,-0.534351
0.592773,-0.888428,-0.268799,-41.061069,42.129772,10.824428
1.281006,-0.752197,-1.429199,-59.389313,-34.290077,-9.389313
0.935059,-0.805420,-0.797852,-60.717556,-4.145038,-11.503817
0.490234,-0.276855,1.307373,-9.908397,35.335876,-12.480916
1.424316,0.343750,0.868164,9.618320,-116.938934,-22.656488
0.405029,-0.380859,0.556396,-17.961832,13.832061,-7.022901
1.360107,-0.251709,0.266846,-30.732824,-51.694656,-12.809160
1.226318,0.270264,0.629639,2.694656,-59.854961,-23.000000
0.931396,0.281494,0.742920,11.541985,-52.267174,-19.114504
0.929443,0.196533,0.737305,13.969465,-49.977100,-14.236641
1.071533,0.124023,0.558105,17.213741,-51.687023,-6.282443
1.159912,-0.075195,0.323730,11.870229,-38.740459,3.458015
1.019775,-0.312256,0.369141,6.511450,5.664122,15.473283
0.884521,-0.164307,0.707520,26.511450,9.068703,11.068703
1.099854,-0.023926,0.472168,31.366413,-33.045803,5.335878
0.997803,-0.221924,0.496826,30.160305,1.931298,11.832061
1.204346,0.098389,0.767334,48.763359,-23.412214,-6.656488
1.221436,-0.092529,0.560303,25.244274,23.511450,-3.412214
1.197510,-0.223633,0.529297,18.648855,53.396946,-9.045801
1.847168,0.452148,0.598877,45.053436,3.549618,-34.251907
0.809570,-0.622559,-0.448975,-17.503817,102.732826,-9.366412
0.773682,-0.668701,0.416504,-19.312977,160.847336,-17.122137
1.420166,-0.812256,-1.868652,-32.465649,62.923664,-34.717556
1.420898,1.220703,1.424805,44.740459,61.725189,-43.694656
0.479736,-1.057129,-0.887451,-71.816795,135.160309,-19.114504
-0.108887,0.887695,1.984314,-8.541985,183.961838,-13.809160
1.372070,1.048096,0.783447,14.412213,53.793892,-32.129772
1.844727,0.102051,-2.000000,-7.297710,1.511450,-31.435114
1.712646,-0.533203,-2.000000,-21.694656,0.137405,-22.893129
1.599121,-0.730225,-2.000000,-25.312977,5.000000,-16.625954
1.622070,-0.660889,-2.000000,-19.129770,0.106870,-15.664123
1.731445,-0.407471,-2.000000,4.259542,-9.923664,-16.847328
1.804688,0.001465,-2.000000,19.740458,-10.244275,-14.572519
1.778320,0.528809,-1.964600,30.549618,-0.488550,-11.366412
1.583740,1.054688,-0.489014,32.297710,21.908398,-5.893130
1.160889,1.375488,1.324707,23.862595,57.442749,-1.198473
1.351563,1.135010,0.742432,20.923664,20.160305,-11.007633
0.838135,-1.154785,-2.000000,-69.984734,8.175572,-5.198473
1.074707,0.968994,1.723389,28.786259,19.366413,-14.625955
0.272217,0.747559,1.984314,22.809160,101.664124,2.328244
0.609619,0.814941,1.984314,36.091602,62.717556,-3.519084
0.939941,0.703613,1.364502,9.893129,-22.389313,-7.442748
0.222168,-0.546143,-0.223389,-37.358780,107.633591,12.748092
1.031250,0.618652,1.292236,8.335877,6.190840,-16.732824
0.039795,-0.023682,1.093750,9.198473,77.244278,-6.908397
0.319580,-0.450439,0.666992,-7.541985,89.824425,6.099236
0.547363,-0.416260,0.513916,-4.679389,84.328247,3.625954
0.542480,-0.379639,0.564697,9.473283,83.427483,2.412214
0.414062,-0.276855,0.711670,28.236641,90.358780,0.961832
0.345215,-0.017822,0.966553,47.374046,78.534348,-3.580153
0.482910,0.256104,0.883057,42.480915,35.374046,-11.770992
0.500977,0.030518,0.531982,16.916031,38.931297,-1.274809
0.327637,-0.025635,0.849854,14.862596,66.053436,-2.496183
0.544189,0.160645,0.851807,11.992367,22.198473,-5.274809
0.397705,-0.041016,0.700928,12.022901,54.671757,2.000000
0.563477,0.222168,1.043213,24.839695,14.015267,-10.343512
0.636230,0.366211,1.029785,29.213741,-0.885496,-14.083969
-0.232666,-0.252197,1.266846,26.068703,81.694656,4.297710
0.930908,0.707764,1.886475,54.916031,-33.091602,-15.793893
0.848389,0.688477,0.814697,33.740459,-63.740459,-13.519084
0.255859,1.158447,1.984314,79.099236,-36.106869,-18.702290
-0.447021,-0.739258,0.451416,-12.763359,125.198471,15.381680
1.032471,1.182373,1.258057,32.511452,-86.656487,-19.793894
0.757080,-0.920410,-2.000000,-61.824429,32.229008,8.496183
-0.682617,-0.603516,1.940186,-19.679390,99.099236,13.145039
-0.724609,0.440186,1.984314,21.763359,48.862595,2.175573
-0.357910,0.947510,1.984314,38.793892,2.916031,-3.893130
-0.159180,1.120361,1.984314,43.679390,-14.251908,-4.641222
-0.205811,1.159424,1.984314,41.847328,-12.061069,-1.511450
-0.417236,1.061768,1.984314,34.862595,2.190840,2.290076
-0.677734,0.790039,1.984314,23.977098,22.702290,7.114504
-0.872559,0.402100,1.984314,-0.229008,59.236641,17.290077
-0.933838,-0.034424,1.984314,-18.702290,74.992363,23.244274
-0.826416,-0.514160,1.984314,-36.335876,81.503815,25.984734
-0.785156,-0.059570,1.984314,-12.015267,76.671753,23.000000
1.195557,1.000977,0.881592,5.702290,-105.854965,-7.167939
-0.544922,0.015625,1.984314,-2.702290,74.854965,21.748091
-0.277344,-0.773926,0.872803,-42.816795,89.412216,30.389313
-0.226807,-0.273438,1.641357,-18.801527,75.541985,22.618320
0.528564,0.793945,1.974854,18.091602,-46.435116,-0.312977
0.273926,-0.507568,-0.289063,-50.854961,-14.503817,20.435114
0.623535,0.596436,1.673096,2.816794,-30.465649,-9.671756
-0.166016,-0.321045,0.822510,-25.374046,22.076336,14.343512
0.415771,-0.438965,0.526367,-36.442749,7.320611,13.030535
0.575439,-0.273682,0.474854,-24.793894,-11.717557,4.587786
0.550049,-0.236816,0.526611,-21.366413,-11.839695,1.488550
0.394531,-0.296875,0.618164,-23.679390,5.832061,2.725191
0.247314,-0.167969,0.890137,-16.312977,13.893129,0.297710
0.353760,0.148193,0.930420,-2.992366,-29.511450,-9.022901
0.487793,0.006348,0.557373,-12.480916,-54.137405,-4.213740
0.322510,-0.207275,0.790771,-13.389313,-12.198473,-0.641221
0.518555,0.051514,0.962402,-6.259542,-51.389313,-10.549619
0.438477,-0.155029,0.718750,-12.954199,-24.198473,-1.305344
0.537842,0.170166,1.049561,11.938931,-52.068703,-16.946566
0.613525,0.371826,1.031982,22.778625,-65.389313,-18.984734
-0.166748,-0.202637,1.074707,2.442748,22.442749,2.709924
