ax,ay,az,gx,gy,gz
-0.744629,1.758057,1.984314,-0.145038,5.969466,11.526717
0.352539,1.984314,1.222412,3.610687,-82.664124,-4.732824
1.022705,1.383301,-1.744873,-29.175573,-129.625961,-19.732824
0.879639,0.282959,-2.000000,-72.259544,-107.900764,-20.358778
0.032715,-0.509766,-1.767822,-95.145035,-61.083969,-12.290076
-0.882568,-0.593506,1.021973,-96.488548,12.984733,3.183206
-1.353027,0.039307,1.984314,-76.251907,63.648853,18.160305
-1.058594,1.004639,1.984314,-37.854961,55.587788,28.145039
-0.189453,1.687500,1.984314,-2.145038,8.137404,21.977098
0.619385,1.697998,0.258789,9.175572,-55.541985,11.412213
0.966064,1.031494,-2.000000,-12.862596,-104.641220,6.343512
0.655029,0.090576,-2.000000,-50.633587,-105.816795,9.229008
-0.154297,-0.465820,-1.267334,-83.587784,-52.213741,15.000000
-0.936035,-0.413574,1.531738,-89.007637,24.809160,27.328245
-0.052734,-0.605225,-1.455322,-77.832062,65.450378,32.122139
-0.909912,-0.614990,1.404541,-44.511452,72.503815,32.900764
-1.338135,0.208496,1.984314,-1.061069,20.076336,29.396946
-0.974854,1.247803,1.984314,18.442749,-61.732826,22.297710
-0.085693,1.828613,1.984314,-2.374046,-125.221375,15.603053
0.749268,1.712646,-0.191895,-34.106869,-132.938934,14.984733
1.123291,0.987061,-2.000000,-53.068703,-81.984734,22.145039
0.781494,0.096191,-2.000000,-62.580154,2.160305,25.511450
-0.136963,-0.390625,-0.938477,-52.320610,71.419846,22.725191
-1.029053,-0.212402,1.912598,-29.541985,77.114502,17.755726
-1.414307,0.557129,1.984314,-14.312977,27.427481,15.152672
-0.924561,1.416748,1.984314,-6.992366,-75.183205,11.114504
0.092041,1.835205,1.984314,-22.305344,-147.343506,8.732824
0.976807,1.577637,-0.555420,-48.465649,-154.748093,9.618320
1.251221,0.787354,-2.000000,-77.274811,-88.755722,14.549619
0.745361,-0.067627,-2.000000,-88.114502,3.083969,21.290077
-0.141602,-0.266602,-0.472656,-73.259544,59.152672,25.664122
-0.803711,0.195068,1.984314,-49.595421,48.786259,18.786259
-0.976562,0.985840,1.984314,-46.694656,-15.335877,9.312977
-0.488037,1.627441,1.984314,-63.694656,-94.419846,-4.267176
0.320068,1.557861,1.984314,-86.648857,-133.664124,-1.809160
0.890625,0.855225,-0.060791,-112.793892,-125.587784,7.580153
0.751709,-0.062256,-2.000000,-107.816795,-59.984734,46.419846
0.085693,-0.845459,-2.000000,-78.709923,-24.442749,94.198471
-0.677979,-1.140869,-0.836914,-29.885496,-26.923664,127.984734
-1.056152,-0.785156,1.984314,14.442748,-61.465649,115.251907
-0.988037,0.186523,1.984314,60.603054,-115.259544,64.709923
-0.462158,1.129395,1.984314,86.343513,-182.610687,16.366413
0.387695,1.473389,1.984314,95.664124,-219.770996,8.961832
1.162354,1.509277,0.334961,28.015266,-226.709930,6.015267
1.393066,0.864746,-2.000000,-2.824427,-200.961838,7.618320
1.036377,-0.015381,-2.000000,-46.274811,-148.931305,12.473283
0.237549,-0.340576,-1.697021,-73.595421,-112.442749,-1.984733
-0.617920,-0.458984,0.900879,-83.748093,-105.534348,7.732824
-0.755127,0.125244,1.984314,-68.984734,-97.076332,41.770992
-0.367432,0.989258,1.984314,-54.099236,-135.274811,12.809160
0.390869,1.393555,1.984314,-18.297710,-194.137405,-18.335878
1.246094,1.331299,1.017090,9.541985,-239.900757,-24.526718
1.866211,0.764648,-1.790527,12.633588,-250.137405,-12.480916
1.901855,-0.200928,-2.000000,-1.938931,-214.648849,1.885496
1.296631,-0.816895,-2.000000,-15.641221,-140.297714,3.396947
0.457764,-0.880615,0.177002,-15.412213,-61.290077,9.870229
-0.052979,-0.327393,1.984314,10.328244,-10.396947,6.091603
0.014893,0.691650,1.984314,62.694656,-16.877863,-7.580153
0.749512,1.452393,1.984314,110.870232,-65.030533,-32.610687
1.596924,1.614014,1.560791,138.862595,-117.167938,-64.961830
1.984314,1.134277,-1.257568,133.534348,-131.679382,-84.893127
1.970947,0.319824,-2.000000,98.770996,-91.465652,-90.358780
1.269043,-0.259766,-2.000000,60.343510,-9.557252,-83.885498
0.295898,-0.326172,-0.047607,38.366413,66.152672,-68.267174
-0.422119,0.145508,1.984314,31.442749,104.419846,-47.763359
-0.578369,0.819336,1.984314,65.480919,112.480919,-4.725191
0.184570,1.489502,1.984314,117.900764,71.061066,21.541985
1.184814,1.699463,1.359863,164.877869,9.282443,-16.664122
1.598877,1.148193,-1.947021,141.213745,-43.152672,-47.793892
1.378418,0.381592,-2.000000,95.221375,-33.267174,-45.885498
0.513428,-0.121094,-2.000000,46.916031,19.618320,-30.511450
-0.439453,-0.098145,0.041260,16.022902,81.015266,-11.923664
-0.962158,0.578369,1.984314,15.305344,106.175575,2.580153
-0.630371,1.457764,1.984314,35.167938,60.488548,6.793893
0.393311,1.942139,1.984314,43.770992,-7.595420,3.664122
1.323975,1.595215,-0.607666,39.244274,-85.396950,-3.916031
1.562988,0.640381,-2.000000,6.549618,-114.534348,-2.335878
0.934570,-0.206543,-2.000000,-31.274809,-78.167938,9.603053
0.006348,-0.348389,-0.657471,-27.488550,-7.274809,21.267176
-0.564209,0.356201,1.984314,28.816793,41.717556,20.145039
-0.510742,1.201416,1.984314,92.564888,35.198475,9.152672
0.185791,1.710449,1.984314,120.763359,-23.572519,-1.458015
1.060547,1.763428,1.106689,104.030533,-104.335876,-8.992367
1.639160,1.076172,-1.749756,55.992367,-159.664124,-16.847328
1.520020,0.145996,-2.000000,4.916030,-157.099243,-21.007633
0.613037,-0.454102,-2.000000,-55.465649,-91.030533,-12.282443
-0.421143,-0.433105,0.606445,-92.022903,19.442749,29.045801
-1.034424,0.334473,1.984314,-89.396950,89.221375,60.610687
-0.690186,1.138184,1.984314,-38.801525,82.022903,108.221375
0.372314,1.370850,1.984314,-28.427481,11.709924,127.076332
1.361328,0.982422,-1.051514,-43.923664,-60.809162,108.022903
1.449219,-0.076416,-2.000000,-71.320610,-89.312981,85.045799
0.602051,-0.923828,-2.000000,-62.099236,-45.938931,81.282440
-0.393311,-0.868896,0.297363,-39.389313,39.564884,79.580154
0.447510,-0.697998,-2.000000,16.007633,76.969467,67.427483
-0.479248,-0.469727,0.585937,93.488548,67.778625,54.633587
-0.848877,0.517090,1.984314,121.190842,-17.343512,25.167938
-0.312500,1.577881,1.984314,106.442749,-132.732819,-11.717557
0.834717,1.948730,1.984314,57.893131,-198.862595,-32.793892
1.789795,1.594971,-0.513916,-7.549618,-177.717560,-49.549618
1.984314,0.672363,-2.000000,-23.648855,-77.709923,-36.977100
1.542725,0.072266,-2.000000,-40.954197,45.534351,-15.984733
0.508057,-0.175537,-0.517334,10.442748,121.870232,30.412214
-0.200439,0.470459,1.984314,47.213741,126.763359,40.587788
-0.248779,1.289307,1.984314,71.580154,81.045799,15.145039
0.465332,1.793945,1.984314,80.198471,1.198473,-20.290077
1.378174,1.759033,0.217041,69.167938,-33.358780,-42.114502
1.801758,1.043945,-2.000000,34.412212,-18.335878,-45.000000
1.454346,0.292236,-2.000000,24.389313,33.045803,-36.694656
0.536621,-0.024658,-1.577881,39.587788,82.893127,-26.519083
-0.262451,0.221680,1.630127,79.610687,87.656487,-24.687023
-0.443848,0.908203,1.984314,115.793892,37.358780,-33.091602
0.216309,1.533447,1.984314,119.671753,-29.603054,-45.519085
1.151855,1.697021,1.116699,89.190842,-62.129772,-49.770992
1.732422,1.117676,-2.000000,57.282444,-49.267174,-42.183205
1.520752,0.301025,-2.000000,16.793894,10.251908,-24.312977
0.594971,-0.191406,-2.000000,5.129771,82.839691,-3.488550
-0.342529,-0.066650,1.012451,33.938931,110.709923,8.083969
-0.706055,0.699219,1.984314,71.687019,68.893127,5.183206
-0.111084,1.456299,1.984314,81.717560,-14.877863,-6.679389
0.959473,1.644531,1.510010,53.473282,-85.259544,-19.053434
1.705566,1.035156,-1.688965,7.129771,-86.251907,-22.091602
1.583984,0.069336,-2.000000,-29.480917,-14.526717,-13.366412
0.624512,-0.462402,-2.000000,-26.251909,74.381676,0.877863
-0.396240,-0.225098,1.016357,-5.755725,105.534348,-0.374046
-0.777832,0.641113,1.984314,38.038166,67.816795,-6.122138
-0.167725,1.438965,1.984314,40.320610,-28.770992,-17.450382
0.951172,1.579346,1.280762,21.870230,-113.274811,-16.961832
1.768555,0.952148,-1.983887,-13.442748,-124.908394,-8.175572
1.676758,0.068115,-2.000000,-41.374046,-52.091602,8.717557
0.726807,-0.290771,-1.797363,-37.755726,48.809162,14.847328
-0.264160,-0.014893,1.383301,-0.641221,104.870232,18.244274
-0.616211,0.812988,1.984314,51.213741,79.519081,23.534351
0.076172,1.612793,1.984314,59.618320,-5.106870,18.923664
1.144775,1.741943,0.937500,28.511450,-74.725189,3.511450
1.815430,0.963867,-2.000000,-28.290077,-101.358780,-5.480916
1.542969,-0.069336,-2.000000,-80.053436,-37.320610,7.412214
0.530762,-0.550537,-1.295166,-75.679390,61.984734,16.587786
-0.382568,-0.247314,1.982422,-20.572519,128.381683,20.992367
-0.611328,0.735107,1.984314,43.236641,119.641220,17.259542
0.068604,1.520996,1.984314,84.427483,35.763359,3.480916
1.034180,1.686768,0.346191,46.488548,-52.671757,4.816794
1.619873,0.978027,-2.000000,-17.603054,-87.221375,9.969465
1.276123,0.041504,-2.000000,-85.389313,-44.992367,24.610687
0.340088,-0.408936,-1.149902,-89.053436,17.465649,32.740459
-0.440430,0.083984,1.984314,-52.007633,88.236641,30.793894
-0.522217,0.962402,1.984314,12.908397,92.053436,35.236641
0.296631,1.558594,1.984314,64.702293,32.977100,24.076336
1.225586,1.472900,-0.107910,70.122139,-45.137405,6.580153
1.605469,0.644775,-2.000000,38.900764,-75.000000,1.816794
1.057617,-0.197510,-2.000000,9.251908,-28.503817,10.717557
0.060791,-0.340576,-0.980713,5.549618,49.053436,24.335878
-0.672607,0.397217,1.984314,25.572519,89.541985,22.389313
-0.622803,1.392334,1.984314,55.908398,61.671757,11.877863
0.322266,1.943359,1.984314,58.572517,2.587786,4.015267
1.424072,1.721436,0.006104,62.206108,-64.900764,-5.175572
1.918945,0.819092,-2.000000,41.320610,-80.717560,-21.389313
1.368408,-0.003662,-2.000000,2.984733,-15.534351,-29.923664
0.237305,-0.142578,-0.451904,-8.343512,85.038170,-22.442749
-0.563477,0.475342,1.984314,40.709923,150.519089,-8.152672
-0.467041,1.449707,1.984314,102.381676,146.114502,-7.160306
0.438477,1.984314,1.984314,150.900757,72.106873,-25.175573
1.353271,1.851807,-0.685303,149.740463,-11.595420,-38.923664
1.735596,1.152100,-2.000000,107.526718,-38.099236,-44.862595
1.098145,0.367432,-2.000000,49.847328,-10.801527,-47.847328
0.019287,0.148682,-0.545410,-26.664122,59.129772,-43.603054
-0.738525,0.656006,1.984314,-57.664124,119.061066,-33.030533
-0.511230,1.495117,1.984314,-34.389313,106.992363,-30.984734
0.713135,1.984314,1.984314,3.183206,35.251907,-54.923664
1.689453,1.799316,-0.623291,-12.259542,-40.877861,-87.129768
1.756592,0.883789,-2.000000,-74.435112,-62.648853,-98.183205
0.794922,0.103516,-2.000000,-146.969467,-26.320610,-94.664124
-0.538330,-0.087891,-0.226807,-219.267181,34.427483,-58.351147
-1.239746,0.492920,1.984314,-250.137405,65.931297,-19.954199
-0.873047,-0.424561,0.487061,-250.137405,23.282442,4.908397
-1.144287,0.130859,1.984314,-250.137405,-72.091606,14.068703
-0.283203,0.853516,1.984314,-220.496185,-160.496185,15.687023
0.918213,0.949951,0.383545,-196.549622,-179.977097,15.335877
1.576172,0.290039,-2.000000,-180.656494,-130.679382,18.328245
1.297852,-0.553711,-2.000000,-154.412216,-60.893131,27.709923
0.335205,-0.892334,-2.000000,-98.770996,-18.832062,31.030535
-0.573975,-0.562256,0.619873,-28.893129,-48.847328,34.610687
-0.852295,0.281494,1.984314,20.572519,-149.381683,19.045801
-0.280518,0.830811,1.984314,-0.389313,-250.137405,1.015267
0.951416,0.963135,1.984314,-5.274809,-250.137405,0.633588
1.984314,1.033447,0.438965,34.862595,-250.137405,16.908398
1.984314,0.834473,-1.837402,78.984734,-145.709930,14.473283
1.984314,0.389404,-2.000000,28.610687,1.022901,22.274809
1.050293,0.381836,-0.708740,-3.610687,104.259544,24.106871
-0.140381,0.365234,1.666992,-14.679389,130.312973,42.000000
-0.743896,0.623779,1.984314,-26.916031,84.847328,61.923664
-0.322266,1.214111,1.984314,-11.297709,-9.183207,71.824425
0.738281,1.626465,1.984314,3.038168,-96.274811,54.312977
1.682373,1.504395,-0.808105,-8.152672,-120.740456,36.786259
1.981445,0.825684,-2.000000,-40.435116,-91.938934,29.755726
1.502930,0.064453,-2.000000,-76.106873,-12.083969,38.267174
0.572021,-0.373047,-0.450439,-71.435112,53.366413,46.450382
-0.173340,-0.152588,1.984314,-34.610687,78.549622,44.679390
-0.304199,0.568115,1.984314,16.534351,43.664124,37.137405
0.335938,1.234375,1.984314,42.030533,-18.603054,26.824427
1.204834,1.458740,1.185303,33.083969,-73.442749,4.832061
1.736084,0.855469,-1.636230,6.778626,-80.709923,7.328244
1.700195,0.045166,-2.000000,-22.862595,-23.038168,16.366413
0.952148,-0.531982,-2.000000,-19.427481,61.022900,23.725191
-0.028320,-0.608154,0.279297,1.725191,99.297707,30.114504
-0.623291,-0.054932,1.984314,35.572517,109.328247,32.076336
-0.495117,0.691162,1.984314,67.770996,54.167938,34.366413
0.408447,1.224854,1.984314,83.954201,-19.763359,27.152672
1.404053,1.381104,0.257813,72.160309,-68.610687,11.145039
1.870361,0.837402,-2.000000,23.908398,-66.167938,5.198473
1.524902,0.086426,-2.000000,-34.251907,-2.862595,18.458015
0.547119,-0.317139,-1.608398,-65.244278,73.145035,38.595421
-0.349609,-0.197021,1.504395,-54.885498,104.732826,52.770992
-0.607178,0.437256,1.984314,-22.122137,70.725189,56.213741
0.096680,1.114990,1.984314,3.473282,17.129770,53.702290
1.230957,1.474609,1.771240,21.480917,-52.030533,26.557251
1.959229,1.144287,-1.380615,-5.496183,-85.061066,-4.923664
1.873779,0.316406,-2.000000,-53.160305,-55.870228,-9.267176
1.070801,-0.298340,-2.000000,-81.175575,8.198473,4.351145
0.168457,-0.350098,0.151611,-72.335876,66.511452,15.007633
-0.314453,0.287842,1.984314,-38.236641,76.786263,7.053435
-0.016846,1.144287,1.984314,6.343512,33.625954,-6.198473
0.946289,1.551758,1.984314,40.007633,-38.427483,-25.595419
1.906982,1.486328,0.093750,33.221375,-87.335876,-50.068703
1.984314,0.660400,-2.000000,30.290077,-86.007637,-59.687023
1.874023,-0.422852,-2.000000,14.450381,-33.740459,-51.694656
0.932373,-1.015869,-1.383057,29.206106,49.458015,-39.458015
0.094482,-0.992920,1.507324,78.419846,111.145035,-33.885498
-0.189209,-0.330322,1.984314,167.748093,127.687019,-39.389313
0.239014,0.498047,1.984314,248.175568,88.984734,-52.786259
1.127930,0.797607,1.984314,248.175568,38.244274,-63.832062
1.910645,0.600342,-0.198730,248.175568,8.213740,-77.496185
1.984314,0.084229,-2.000000,248.175568,18.809160,-92.557251
1.958740,-0.480713,-2.000000,248.175568,86.175575,-112.610687
1.118408,-0.781982,-2.000000,248.175568,167.618317,-131.290070
0.082764,-0.439697,-0.458984,248.175568,248.175568,-125.167938
-0.735352,0.933594,1.619385,248.175568,248.175568,-115.854965
-0.870850,1.984314,1.984314,248.175568,248.175568,-122.076332
-0.367432,1.984314,1.176514,248.175568,248.175568,-122.389313
0.137695,1.984314,-1.697998,50.603054,95.793892,-124.259544
0.599854,1.984314,-2.000000,-250.137405,-153.305344,-115.580154
0.815430,1.050781,-2.000000,-250.137405,-250.137405,-83.618324
0.523682,-0.573242,-2.000000,-250.137405,-250.137405,-44.847328
0.064209,-0.953369,-0.982910,-250.137405,-250.137405,-15.206107
-0.033447,-0.557129,1.984314,-250.137405,-90.183205,-18.908398
0.099121,0.501465,1.984314,-163.000000,81.183205,-56.442749
0.367188,1.645508,1.984314,-28.610687,152.419846,-102.000000
0.720947,1.984314,0.995850,16.175573,103.954201,-121.625954
0.964844,1.980713,-1.821289,-41.503819,-49.694656,-117.038170
1.014160,1.466797,-2.000000,-164.572525,-210.564880,-109.366409
0.732666,0.413086,-2.000000,-250.137405,-250.137405,-108.122139
0.168457,-0.271240,-1.109863,-250.137405,-231.022903,-114.610687
-0.290039,-0.178467,1.984314,-250.137405,-139.030533,-123.137405
-0.317871,0.432861,1.984314,-250.137405,-49.748093,-115.755722
-0.345459,-0.681396,1.984314,-250.137405,10.038168,-91.564888
-0.624023,0.306152,1.984314,-198.404587,-8.496183,-83.694656
-0.118652,1.067871,1.984314,-157.068695,-83.786263,-91.816795
0.769287,1.086182,1.204590,-149.076340,-127.374046,-68.786263
1.431396,0.331543,-1.663818,-144.297714,-100.114502,-38.351147
1.368896,-0.703613,-2.000000,-114.832062,-23.656488,-14.900764
0.639648,-1.307861,-2.000000,-63.267174,52.244274,15.335877
-0.221680,-1.164063,0.323730,1.305344,82.595421,35.267174
-0.779785,-0.280518,1.984314,49.702290,50.526718,28.687023
-0.752441,0.808350,1.984314,57.496181,-26.061069,10.885496
-0.061768,1.537598,1.984314,26.534351,-84.251907,3.381679
0.854492,1.576660,1.228516,-11.015267,-136.839691,-1.015267
1.536621,0.892578,-1.478760,-36.900764,-130.862595,9.984733
1.677246,-0.004883,-2.000000,-38.763359,-72.030533,28.213741
1.168457,-0.518799,-2.000000,-10.259542,6.488550,36.580154
0.340332,-0.416016,-0.439453,32.320610,64.931297,27.916031
-0.416016,0.143311,1.984314,66.458015,70.580154,7.961832
-0.724854,0.936279,1.984314,70.549622,17.610687,-4.053435
-0.260742,1.778564,1.984314,36.427483,-67.519081,-10.458015
0.653320,1.984314,1.984314,-23.854961,-126.900764,-10.893129
1.446777,1.459473,-0.099365,-76.404579,-133.770996,-1.503817
1.793457,0.402100,-2.000000,-89.129768,-91.908394,13.992367
1.450195,-0.612305,-2.000000,-56.358780,-4.908397,29.213741
0.622559,-0.989990,-0.984375,2.389313,86.068703,48.297710
-0.183350,-0.757324,1.447021,65.236641,133.038162,48.137405
-0.696045,-0.121826,1.984314,133.015274,122.954201,32.183205
-0.684082,0.831787,1.984314,182.862595,68.610687,19.648855
-0.097900,1.596680,1.984314,200.343506,-3.954198,8.961832
0.698975,1.984314,1.353516,172.961838,-68.389313,-2.549618
1.330811,1.941162,-1.307861,99.175575,-94.412216,-7.992366
1.554688,1.300293,-2.000000,20.969465,-93.946564,-2.068702
1.224365,0.420654,-2.000000,-48.145039,-45.801525,18.954199
0.439453,-0.283691,-1.776367,-81.198471,16.656488,25.564886
-0.373779,-0.482178,1.002441,-60.633587,59.198475,37.763359
-0.795166,-0.129883,1.984314,2.977099,56.893131,51.694656
-0.576416,0.632324,1.984314,54.045803,13.564885,52.038166
0.127930,1.165039,1.984314,89.679390,-53.305344,36.045803
0.961182,1.406738,1.101074,97.763359,-114.862595,18.343512
1.532715,1.077881,-1.590088,69.885498,-139.488556,13.511451
1.660645,0.400146,-2.000000,28.343512,-119.564888,21.862595
1.224854,-0.132568,-2.000000,-9.595420,-91.236641,32.152672
0.476318,-0.316650,-1.413086,-34.541985,-39.282444,54.687023
-0.163574,0.060547,1.203613,-51.847328,-2.610687,63.061069
-0.489014,0.845215,1.984314,-83.786263,3.183206,56.816795
-0.253418,1.414795,1.984314,-69.809158,-32.580154,45.656490
0.588135,1.744385,1.984314,-34.312977,-93.931297,36.236641
1.585938,1.773926,0.809570,-2.282443,-143.259537,17.847328
1.984314,1.284912,-1.839355,-14.290076,-129.458008,-3.473282
1.979980,0.508545,-2.000000,-44.236641,-67.244278,-11.702291
1.203857,-0.112061,-2.000000,-71.938934,11.465649,0.587786
0.184082,-0.406982,-0.515625,-82.587784,60.343510,13.824428
-0.588623,-0.146729,1.984314,-62.641220,92.343513,26.541985
-0.813965,0.504395,1.984314,-20.809160,75.297707,33.847328
-0.315186,1.199707,1.984314,20.564886,21.511450,31.480917
0.601318,1.712891,1.984314,40.167938,-44.320610,16.832062
1.419678,1.683350,0.008545,22.541985,-94.091606,3.885496
1.839844,1.167236,-2.000000,-21.030535,-109.893127,-0.816794
1.672607,0.374268,-2.000000,-61.396946,-92.007637,4.290076
1.038574,-0.227051,-2.000000,-87.351143,-47.358780,13.755725
0.255615,-0.499512,-0.258545,-87.862595,16.656488,22.618320
-0.301758,-0.112305,1.984314,-74.297707,61.748093,21.244274
-0.431885,0.640625,1.984314,-37.923664,87.145035,20.793894
0.023926,1.324951,1.984314,-4.267176,61.702290,13.381680
0.838867,1.684326,1.984314,19.083969,3.160305,3.732824
1.554688,1.463867,-0.472412,19.832062,-62.748093,-7.427481
1.927734,0.798340,-2.000000,-0.503817,-95.595421,-13.419847
1.689941,-0.060303,-2.000000,-29.297710,-75.312981,-19.083969
0.906250,-0.592041,-1.954102,-45.229008,-3.206107,-12.816793
0.002197,-0.696289,0.507812,-32.557251,80.923668,-0.870229
-0.560059,-0.106934,1.984314,4.587786,136.961838,13.198473
-0.593750,0.807373,1.984314,21.473282,145.312973,10.480916
-0.072998,1.439453,1.984314,29.641222,98.022903,2.206107
0.741943,1.653809,1.445313,26.496183,12.786260,-8.038168
1.461670,1.224609,-1.127686,19.435114,-68.122139,-10.839695
1.773926,0.440430,-2.000000,-1.374046,-100.870232,-12.396947
1.467041,-0.278076,-2.000000,-22.343512,-67.786263,-12.557252
0.669434,-0.585937,-1.271484,-31.374046,4.160306,-10.015267
-0.186279,-0.492432,1.283691,-26.946566,84.343513,-2.534351
-0.723877,0.141846,1.984314,-11.038168,125.137405,7.587786
-0.643066,0.967041,1.984314,7.656488,111.862595,11.572519
-0.590576,-0.112061,1.984314,16.847328,69.984734,10.175572
-0.600586,0.501465,1.968689,-0.007634,-0.007634,-0.007634
-0.069824,1.116455,1.984314,35.564884,-52.458015,-5.099236
0.718262,1.547607,1.984314,30.244274,-82.534348,-13.916031
1.384766,1.577148,-0.203369,5.122138,-79.885498,-21.778625
1.733398,1.119873,-2.000000,-26.839695,-44.175571,-22.045801
1.635498,0.400391,-2.000000,-49.786259,9.221375,-14.496183
1.092529,-0.202393,-2.000000,-52.122139,67.213737,0.061069
0.310059,-0.596191,-0.466797,-23.183207,103.267174,10.328244
-0.341797,-0.431152,1.984314,20.450382,95.732826,14.160305
-0.661621,0.179199,1.984314,46.099236,64.167938,11.412213
-0.442139,0.982910,1.984314,60.152672,-3.740458,-2.076336
0.196289,1.505615,1.984314,52.778625,-66.587784,-17.251909
0.983643,1.681641,1.075928,27.732824,-100.900764,-22.221375
1.608154,1.353027,-1.319092,-7.824428,-89.419846,-19.068703
1.821533,0.715088,-2.000000,-38.190838,-41.015266,-14.259542
1.489746,-0.020020,-2.000000,-44.793892,26.480917,-4.053435
0.788330,-0.490234,-1.742188,-31.526718,83.526718,9.000000
0.015625,-0.590332,0.541992,-1.106870,107.427483,17.267176
-0.521484,-0.160400,1.984314,40.374046,87.305344,14.114504
-0.632812,0.631104,1.984314,62.083969,49.488548,5.458015
-0.207031,1.347412,1.984314,69.076332,-21.877863,-10.496183
0.550781,1.722900,1.984314,51.557251,-80.129768,-21.083969
1.262939,1.606689,0.145508,17.145039,-108.030533,-21.618320
1.748535,1.105957,-2.000000,-13.923664,-91.129768,-12.938931
1.756104,0.396729,-2.000000,-35.366413,-38.366413,-7.557252
1.261719,-0.152832,-2.000000,-42.671757,26.442749,-3.435115
0.490234,-0.447266,-0.909912,-30.916031,77.725189,1.885496
-0.220947,-0.293213,1.495850,-8.564885,98.419846,5.679389
-0.617187,0.218994,1.984314,22.045801,75.908394,7.022901
-0.509766,0.916748,1.984314,39.198475,39.083969,2.374046
0.079346,1.450928,1.984314,54.725189,-25.183207,-4.244275
0.875244,1.742920,1.571289,46.045803,-83.900764,-15.045801
1.543213,1.529541,-0.852051,16.290077,-110.282440,-22.473282
1.850342,0.942139,-2.000000,-21.885496,-92.625954,-23.030535
1.659912,0.226562,-2.000000,-50.328243,-39.564884,-18.389313
1.045166,-0.188232,-2.000000,-58.038166,27.404581,-10.977099
0.252930,-0.357178,-0.157715,-45.809162,79.801529,-5.480916
-0.353271,-0.079590,1.984314,-15.427481,98.015266,-2.320611
-0.564941,0.505859,1.984314,18.351145,71.053436,-6.335878
-0.230957,1.154785,1.984314,39.282444,35.458015,-14.839695
0.499023,1.615234,1.984314,46.755726,-26.694656,-27.694656
1.260254,1.739502,0.781250,29.251909,-76.877861,-40.000000
1.783203,1.401611,-1.731201,-10.824428,-96.183205,-48.893131
1.839355,0.758545,-2.000000,-57.450382,-75.580154,-43.160305
1.399170,0.126953,-2.000000,-91.389313,-22.778625,-31.541985
0.609131,-0.307617,-1.557617,-97.221375,43.862595,-21.083969
-0.165527,-0.310547,0.936768,-80.503815,95.083969,-12.374045
-0.643555,0.027832,1.984314,-45.587788,110.396950,-10.122137
-0.615723,0.601074,1.984314,-7.351145,75.312981,-10.633588
0.012451,1.070068,1.984314,16.244274,31.305344,-7.099236
0.826904,1.230469,1.376221,35.167938,-0.007634,-0.007634
1.374512,0.777588,-1.381348,20.931297,-71.946564,-25.694656
1.453125,0.027100,-2.000000,-8.274809,-68.961830,-12.015267
0.967529,-0.736572,-2.000000,-37.839695,-18.656488,9.511451
0.067139,-1.210449,-1.959961,-41.190838,55.732826,35.595421
-0.885254,-1.246338,0.715576,-4.244275,124.396950,60.274811
-1.564697,-0.723145,1.984314,46.511452,150.916031,82.618324
-1.733887,0.073730,1.984314,72.862595,125.328247,97.557251
-1.383789,0.658447,1.984314,68.725189,54.832062,96.282440
-0.865967,0.788574,0.925293,44.404579,-15.435115,112.061066
-0.254883,0.689209,-1.710693,55.549618,-134.679382,134.358780
0.278564,0.506836,-2.000000,26.366413,-233.404587,160.259537
0.544189,0.551758,-2.000000,16.007633,-250.137405,135.305344
0.444336,0.404785,-2.000000,-65.786263,-250.137405,155.679382
0.834717,0.737793,0.792480,-125.671753,-250.137405,248.175568
1.984314,1.008545,1.984314,-179.862595,-250.137405,248.175568
1.984314,1.173828,1.984314,-143.053436,-250.137405,248.175568
1.984314,1.101563,1.984314,-73.885498,-6.793893,54.916031
1.984314,1.343506,1.984314,46.335876,248.175568,-153.900757
1.984314,1.971924,-0.080078,101.198471,248.175568,-223.442749
1.366211,1.149902,-1.842529,88.900764,170.412216,-196.068695
0.858154,0.139893,-2.000000,101.816795,-97.748093,-101.763359
1.071777,-0.280029,-2.000000,88.290077,-186.885498,-35.213741
1.138916,-0.369141,-1.151123,73.923668,-161.480911,-28.641222
0.894531,-0.387939,1.159424,70.022903,-54.374046,-35.969467
0.482422,0.026123,1.984314,91.076332,56.045803,-44.106869
0.259521,0.829590,1.984314,155.839691,101.267174,-54.618320
0.496582,1.704102,1.984314,172.992371,93.961830,-56.557251
1.182617,1.984314,1.984314,144.343506,24.450382,-101.801529
-0.101563,1.243896,1.984314,122.885498,-1.610687,-118.625954
0.480713,1.845215,1.984314,96.282440,-43.274811,-91.221375
1.372070,1.984314,0.614014,250.129776,-0.007634,-0.007634
1.902832,1.509277,-2.000000,-67.732826,-7.923664,-110.320610
1.789307,0.614502,-2.000000,-107.488548,66.045799,-108.679390
1.064209,-0.275391,-2.000000,-122.022903,138.717560,-101.442749
0.020020,-0.884766,-1.202881,-84.877861,190.877869,-59.496181
-0.737793,-0.798096,1.670654,-40.977100,186.923660,-18.335878
-1.019043,-0.241699,1.984314,-11.687023,139.290070,-18.389313
-0.779053,0.349609,1.984314,-8.977099,72.305344,-42.801525
-0.218262,0.600830,1.053467,-72.312981,24.931297,-19.824427
0.335449,0.521240,-1.060547,-99.725189,15.000000,10.465649
0.618408,0.024414,-2.000000,-73.664124,13.816793,26.137405
0.331055,-0.859619,-2.000000,-110.396950,63.030533,40.778625
-0.432861,-1.487549,-2.000000,-95.992363,112.526718,65.213737
-1.203369,-1.380371,0.275879,-5.190840,134.740463,92.870232
-1.677734,-0.630371,1.984314,68.053436,99.587784,98.320610
-1.713379,0.005127,1.984314,98.969467,17.938931,98.435112
-1.182373,0.447998,1.984314,98.832062,-75.122139,114.839691
-0.375977,0.634521,0.313477,69.259544,-160.206100,135.824432
0.324219,0.433838,-1.916504,42.564884,-218.404587,162.801529
0.889648,0.295654,-2.000000,34.106869,-250.137405,170.938934
1.060303,0.351807,-2.000000,-48.022900,-250.137405,161.122131
1.483887,0.501709,-0.838379,-40.358780,-250.137405,240.549622
1.984314,1.262451,1.984314,-68.244278,-250.137405,248.175568
1.984314,1.718750,1.984314,-109.442749,-250.137405,248.175568
1.984314,0.729492,1.984314,-111.954201,-27.610687,-32.725189
1.984314,0.366699,1.984314,-31.061069,248.175568,-210.961838
1.984314,1.219727,0.281250,62.053436,248.175568,-250.137405
1.679443,1.606201,-1.766357,83.244278,248.175568,-250.137405
0.844482,1.292969,-2.000000,109.297707,203.770996,-185.931305
0.488281,0.866943,-2.000000,79.175575,30.908398,-92.748093
0.729248,0.449951,-2.000000,43.236641,-40.030533,-40.618320
0.864746,-0.006348,-0.245361,32.427483,8.870229,-40.587788
0.688232,-0.061768,1.976807,51.679390,88.961830,-61.534351
0.455811,0.207031,1.984314,90.129768,124.320610,-79.328247
0.623535,0.967041,1.984314,129.122131,126.618324,-140.297714
0.820801,1.384521,1.984314,171.267181,111.908394,-172.786255
1.339600,1.804932,0.621094,159.732819,78.809158,-143.030533
1.786865,1.531982,-2.000000,83.908394,36.282444,-123.374046
1.737793,0.527588,-2.000000,3.671756,28.801527,-104.282440
1.067627,-0.330811,-2.000000,-49.389313,65.725189,-107.351143
0.062500,-0.733887,-0.827881,-51.679390,123.633591,-108.427483
-0.764893,-0.329834,1.940186,-39.938931,160.969467,-85.725189
-0.975586,0.458740,1.984314,-14.442748,143.839691,-69.961830
-0.468750,1.102783,1.984314,-0.664122,75.923668,-51.801525
0.357422,1.031982,0.815674,-36.946564,2.786260,-23.717558
0.918457,0.365723,-2.000000,-75.908394,-36.801525,-19.259542
0.628662,-0.710449,-2.000000,-111.618324,-21.190840,-14.832061
-0.369629,-1.582031,-2.000000,-102.061066,23.328245,24.183207
-1.256348,-1.591309,-0.506836,-82.938934,19.442749,78.893127
-1.612793,-1.017822,1.984314,-54.625954,14.496183,100.931297
-1.447021,-0.289551,1.984314,-25.748091,6.770992,114.534348
-0.956787,0.036377,1.984314,9.809160,-14.320611,139.251907
-0.356689,0.063965,0.695557,53.755726,-64.175575,166.312973
0.125977,-0.108643,-2.000000,79.824425,-131.053436,196.282440
0.226318,-0.238525,-2.000000,63.854961,-187.450378,209.267181
-0.246094,-0.025879,-2.000000,-53.793892,-220.282440,207.770996
-0.822021,0.096680,-0.716064,-145.816788,-241.343506,248.175568
-0.491455,0.678955,1.984314,-162.664124,-250.137405,248.175568
1.209473,1.916016,1.984314,-137.015274,-250.137405,248.175568
1.984314,1.984314,1.984314,-91.488548,-250.137405,248.175568
1.984314,1.984314,1.784668,-108.343513,-250.137405,149.877869
1.984314,0.636230,-1.398682,-82.725189,-105.725189,-70.244278
1.984314,0.324463,-2.000000,9.236641,196.641220,-164.351151
1.984314,0.211182,-2.000000,45.541985,248.175568,-204.977097
1.641113,-0.313721,-1.884277,37.198475,236.190842,-196.213745
0.245117,-0.455566,0.557617,43.427483,208.106873,-166.595413
-0.377930,-0.048096,1.984314,72.473282,164.007629,-138.832062
-0.037842,0.810547,1.984314,114.618324,102.068703,-129.900757
0.958496,1.555176,1.984314,135.419846,53.503819,-139.625961
1.984314,1.793213,1.051758,145.961838,17.786259,-156.656494
1.984314,1.404541,-1.376465,146.312973,27.641222,-194.916031
1.984314,0.786133,-2.000000,132.618317,56.320610,-250.137405
1.687744,0.011963,-2.000000,108.442749,107.656487,-245.908401
0.520264,-0.283691,-1.790771,65.687019,167.541992,-190.671753
-0.538818,-0.156494,0.684326,28.496183,217.816788,-152.954193
-1.126953,0.307861,1.984314,-20.687023,234.496185,-124.488548
-0.908447,0.918457,1.984314,-47.068703,179.916031,-129.526718
-0.214111,0.796631,1.729980,-64.946564,87.160309,-120.862595
-1.307373,-0.350098,1.984314,-85.725189,48.755726,-42.267174
-0.405762,0.264404,1.984314,-122.419846,4.030534,16.145039
0.476074,0.331543,-0.683350,-137.236649,-17.625954,25.412214
0.705566,-0.414307,-2.000000,-118.900764,13.045801,0.786260
0.091309,-1.301025,-2.000000,-114.183205,63.809162,28.244274
-0.931396,-1.767090,-2.000000,-78.335876,90.435112,70.519081
-1.719727,-1.533447,0.529541,-20.244274,69.709923,116.816795
-2.000000,-0.852051,1.984314,2.412214,2.809160,133.641220
-1.984863,-0.282959,1.984314,-9.816793,-64.641220,156.473282
-1.296875,0.231445,1.317383,-33.419846,-138.435120,190.748093
-0.433350,0.512695,-1.357666,-46.732826,-250.137405,239.061066
0.653076,0.793701,-2.000000,-75.717560,-250.137405,248.175568
1.264648,0.350098,-2.000000,-107.671753,-250.137405,248.175568
1.984314,0.614258,0.517090,-80.297707,-250.137405,248.175568
1.984314,1.650635,1.984314,-23.946566,-250.137405,248.175568
1.984314,1.766602,1.984314,-52.992367,-250.137405,167.030533
1.984314,0.883057,1.984314,-97.648857,-129.412216,-57.870228
1.984314,0.848145,1.774658,-30.732824,248.175568,-180.145035
1.984314,1.357666,-1.219727,53.351147,248.175568,-250.137405
1.984314,1.225586,-2.000000,87.297707,248.175568,-250.137405
1.607910,0.506592,-2.000000,97.091606,248.175568,-209.114502
0.396484,-0.081055,-2.000000,89.816795,235.870224,-141.167938
-0.350586,-0.134521,0.426270,95.664124,135.610687,-98.015266
-0.442383,0.472412,1.984314,113.526718,49.175571,-98.832062
0.077637,1.166992,1.984314,122.137405,-10.580153,-131.358780
1.033936,1.637451,1.984314,119.045799,-43.946564,-161.213745
1.766846,1.569092,-0.154053,101.969467,-36.358780,-195.244278
1.984314,1.120850,-2.000000,52.572517,32.854961,-153.419846
1.598145,0.551514,-2.000000,8.358779,121.992363,-113.854965
0.576172,-0.101074,-2.000000,-13.526717,185.946564,-96.908394
-0.527100,-0.388672,0.235840,-28.114504,190.961838,-105.717560
-1.239258,-0.230225,1.984314,-17.183207,156.916031,-93.083969
-0.965820,0.497314,1.984314,-27.442749,92.251907,-48.625954
0.036621,1.080811,1.816650,-98.259544,5.900764,-14.389313
0.988770,0.692383,-1.336182,-174.541992,-47.358780,-3.076336
1.164307,-0.394775,-2.000000,-223.068695,-45.732826,-24.908398
0.276855,-1.661133,-2.000000,-232.396942,14.954199,-20.335878
-0.943604,-2.000000,-1.232666,-155.885498,81.709923,28.435114
-1.774658,-1.755615,1.984314,-74.725189,84.328247,93.923668
-1.600342,-0.355957,1.984314,12.938931,3.763359,109.282440
-0.894531,0.626221,1.984314,20.435114,-45.473282,95.938934
-0.383057,0.712891,0.186523,-21.801527,-87.328247,94.778625
-0.201416,0.048584,-2.000000,-63.755726,-110.030533,141.335876
-0.569580,-0.939941,-2.000000,-93.931297,-127.961830,215.541992
-1.122803,-1.418701,-2.000000,-95.320610,-210.679382,248.175568
-1.180664,-0.866211,-0.343018,-98.671753,-250.137405,248.175568
-0.489746,0.311523,1.984314,-47.648853,-250.137405,248.175568
1.929688,1.984314,1.984314,5.053435,-250.137405,248.175568
1.984314,1.984314,1.984314,-66.473282,-250.137405,248.175568
1.984314,1.160645,1.364990,-152.641220,-250.137405,139.709930
1.984314,0.073486,-1.532715,-96.763359,107.885498,-103.381676
1.984314,0.611816,-2.000000,8.526717,248.175568,-250.137405
1.984314,0.338135,-2.000000,28.114504,248.175568,-250.137405
0.643066,-0.754395,-1.368896,27.145039,248.175568,-215.404587
-0.706543,-0.799072,1.313232,56.931297,204.236649,-126.190842
-0.861084,0.176514,1.984314,120.664124,118.618324,-77.709923
0.043457,1.286865,1.984314,167.053436,38.229008,-91.114502
1.263916,1.901367,1.984314,189.221375,11.687023,-124.465652
1.984314,1.942627,0.681885,169.877869,-34.061069,-146.061066
1.984314,1.460449,-1.919922,126.938934,-29.137405,-155.732819
1.984314,0.748779,-2.000000,95.251907,39.213741,-187.106873
1.713379,0.029297,-2.000000,63.541985,109.587784,-233.274811
0.374756,-0.258057,-1.042725,25.832062,192.793900,-183.480911
-0.532227,0.198486,1.645020,-9.312977,248.175568,-138.572525
-0.876953,0.677246,1.984314,-20.274809,240.954193,-140.221375
-0.453125,1.128174,1.984314,-24.015266,137.526718,-169.091599
0.364014,1.035889,0.991211,-51.343510,42.625954,-121.358780
1.214355,0.673828,-2.000000,-142.885498,5.992366,-50.076336
1.315186,-0.288574,-2.000000,-223.809158,13.648855,-11.786260
0.516846,-1.232422,-2.000000,-218.076340,59.351147,-28.664122
-0.701416,-1.721924,-1.018311,-159.213745,94.885498,-55.396946
-1.704834,-1.530762,1.702148,-128.374039,148.671753,-23.702290
-1.984131,-0.799805,1.984314,-71.213737,164.145035,34.374046
-1.407959,-0.051025,1.984314,1.916031,97.374046,84.389313
-0.415527,0.280762,0.813232,74.251907,-30.030535,97.267174
0.487305,0.130615,-2.000000,80.358780,-141.931305,87.465652
0.586182,-0.470947,-2.000000,15.564885,-152.335876,94.564888
-0.199951,-1.220215,-2.000000,-42.045803,-93.221375,136.290070
-1.377197,-1.729004,-2.000000,-76.748093,-54.839695,189.664124
-2.000000,-1.469238,0.690674,-72.641220,-90.572517,248.175568
-0.657715,-1.083008,-2.000000,-4.129771,-216.221375,248.175568
-0.497559,-0.168945,1.005859,46.656490,-250.137405,248.175568
0.054443,1.380859,1.984314,31.977098,-250.137405,248.175568
1.984314,1.984314,1.984314,-7.870229,-250.137405,248.175568
1.984314,1.984314,1.984314,-135.969467,-250.137405,248.175568
1.984314,1.194092,1.125977,-250.137405,-250.137405,149.648849
1.984314,-0.319824,-1.643555,-195.954193,-14.511451,-93.320610
1.984314,-0.023682,-2.000000,-15.954199,248.175568,-187.557251
1.984314,0.367188,-2.000000,53.396946,248.175568,-226.145035
1.288086,-0.211426,-1.939453,60.687023,248.175568,-202.572525
-0.069580,-0.502930,0.833252,69.610687,248.175568,-142.809158
-0.505859,0.023926,1.984314,130.702286,174.145035,-94.389313
0.208496,1.030762,1.984314,187.709930,51.435116,-118.251907
1.266357,1.616211,1.984314,192.358780,-43.519085,-156.122131
1.984314,1.859619,1.435791,142.755722,-77.786263,-180.511444
1.984314,1.737793,-1.290771,90.664124,11.068703,-235.893127
1.984314,1.103760,-2.000000,61.877861,137.015274,-250.137405
1.518311,0.348145,-2.000000,52.206108,237.854965,-202.801529
0.249512,-0.085693,-2.000000,-6.442748,248.175568,-113.961830
-0.966553,-0.424072,-0.344727,-72.954201,248.175568,-77.030533
-1.750244,-0.221924,1.984314,-105.053436,176.732819,-99.839691
-1.676758,0.248047,1.984314,-82.267174,33.175571,-66.770996
-0.480713,0.980713,1.984314,-94.854965,-83.717560,-12.877863
0.875244,0.886230,-0.327148,-135.832062,-121.000000,12.473283
1.470947,-0.046387,-2.000000,-175.557251,-59.206108,-0.129771
0.776367,-1.386719,-2.000000,-179.206100,58.312977,-9.206107
-0.542725,-2.000000,-2.000000,-114.366409,140.175568,23.908398
-1.651855,-1.878174,0.654297,-23.534351,132.824432,53.572517
-1.930176,-0.874512,1.984314,54.748093,49.709923,88.137405
-1.293945,0.218994,1.984314,100.870232,-47.641220,82.770996
-0.443604,0.641846,1.984314,83.511452,-79.679390,71.396950
-0.009277,0.338379,-0.527344,15.175572,-97.603050,87.618324
0.100098,-0.223145,-2.000000,-33.053436,-85.083969,144.709930
-0.239502,-0.890625,-2.000000,-27.702290,-78.076332,197.496185
-0.824219,-1.300537,-2.000000,-11.694656,-117.717560,248.175568
-1.236328,-0.929932,-1.366699,23.809160,-194.267181,248.175568
-1.242188,0.300293,1.746338,-3.969466,-250.137405,248.175568
-0.119873,1.910645,1.984314,-51.419846,-250.137405,248.175568
1.984314,1.984314,1.984314,-84.419846,-250.137405,248.175568
1.984314,1.702881,1.984314,-161.793900,-250.137405,248.175568
1.984314,-0.038818,-0.015381,-162.106873,-250.137405,9.290076
1.984314,0.265381,-2.000000,-58.412212,233.984726,-216.519089
1.984314,0.295166,-2.000000,-9.946565,248.175568,-250.137405
1.984314,-0.583984,-2.000000,5.587786,248.175568,-250.137405
0.133545,-1.228760,-1.387939,67.000000,248.175568,-236.015274
-0.964355,-0.711182,0.656982,123.000000,216.282440,-121.030533
-0.680664,0.344971,1.984314,141.709930,102.251907,-90.916031
0.193848,1.048584,1.984314,163.419846,47.992367,-129.992371
1.185547,1.404053,1.984314,169.916031,-16.343512,-155.816788
1.984314,1.726318,1.984314,162.847336,-12.870229,-172.458008
1.984314,1.685303,-0.337158,148.709930,82.419846,-210.862595
1.984314,1.320068,-2.000000,111.763359,101.290077,-250.137405
1.543457,0.604736,-2.000000,47.977100,107.083969,-225.480911
0.647949,0.036621,-2.000000,-34.603054,129.328247,-140.595413
-0.338867,-0.347412,-1.511230,-100.000000,154.190842,-104.022903
-1.137695,-0.498779,1.326660,-113.786263,159.992371,-81.603050
-1.389893,0.014160,1.984314,-105.931297,122.068703,-99.343513
-0.876465,0.677979,1.984314,-64.740456,49.557251,-82.519081
0.105225,0.788818,1.064453,-79.251907,-24.938931,-34.412212
0.841797,0.171387,-1.793701,-145.351151,-48.022900,19.152672
0.754150,-0.879395,-2.000000,-158.152664,-28.122137,60.221375
-0.041260,-1.667236,-2.000000,-142.534348,4.206107,80.488548
-1.066895,-1.824219,-0.980469,-103.137405,22.778625,82.137405
-1.580566,-1.169434,1.671143,-57.167938,21.099237,61.267174
-1.617432,-0.412598,1.984314,-10.694656,30.343512,76.816795
-1.142334,0.204346,1.984314,20.595419,27.091602,111.167938
-0.449951,0.631348,1.668457,30.572519,-27.839695,136.351151
0.157471,0.496338,-1.173340,-10.687023,-105.045799,154.442749
0.400635,-0.011475,-2.000000,-68.900764,-167.305344,178.480911
0.238281,-0.607910,-2.000000,-69.389313,-216.847336,200.572525
-0.149902,-0.559814,-2.000000,-61.740459,-250.137405,193.625961
-0.528076,0.075195,0.153564,-79.045799,-242.435120,204.122131
-0.283203,1.345215,1.984314,-96.351143,-193.961838,248.175568
1.337646,1.984314,1.984314,-120.595421,-250.137405,248.175568
1.984314,1.984314,1.984314,-187.358780,-250.137405,248.175568
1.984314,0.651123,1.059326,-213.969467,-250.137405,191.068695
1.984314,-0.055908,-0.841797,-56.221375,-123.541985,-108.175575
1.984314,0.302246,-2.000000,54.053436,244.351151,-231.366409
1.984314,-0.314941,-2.000000,46.786259,248.175568,-250.137405
1.340088,-1.042480,-2.000000,49.687023,248.175568,-232.587784
0.778320,0.120850,-2.000000,97.312981,248.175568,-99.000000
0.503906,0.259277,-2.000000,90.412216,88.770996,-24.160305
0.707275,-0.020508,-1.724121,64.267174,-20.770992,-35.671757
0.881592,-0.055908,0.718506,97.137405,-30.908398,-80.900764
0.910156,0.165527,1.984314,132.480911,-24.664122,-106.015266
0.952148,0.614502,1.984314,154.198471,3.450382,-105.183205
1.175781,1.210449,1.984314,166.801529,86.305344,-123.717560
1.460938,1.568359,1.984314,161.541992,141.786255,-163.801529
1.519775,1.598877,-0.497803,121.946564,122.541985,-228.396942
1.329834,1.173584,-2.000000,23.290077,115.564888,-165.587784
0.959229,0.546143,-2.000000,-79.221375,116.167938,-74.435112
0.191406,-0.288818,-2.000000,-162.221375,112.572517,-46.061069
-0.680664,-0.625244,-0.217285,-172.526718,69.801529,-88.221375
-1.154053,-0.465820,1.984314,-116.343513,27.251909,-64.893127
-0.715820,0.318359,1.984314,-81.595421,1.488550,-12.297709
0.141846,0.719971,1.984314,-93.343513,-9.106871,5.290076
0.773193,0.451416,-0.355225,-90.648857,14.152672,5.603054
0.814941,-0.394287,-2.000000,-78.534348,40.129772,14.740458
0.251465,-1.251709,-2.000000,-64.274811,60.473282,45.053436
-0.540283,-1.627441,-2.000000,-36.778625,72.854965,57.610687
-1.345703,-1.451416,0.140137,-29.938931,47.931297,59.816795
-1.652344,-0.719482,1.984314,23.106871,27.748091,95.236641
-1.329102,0.042236,1.984314,85.725189,-18.496183,104.503815
-0.701416,0.472412,1.984314,92.068703,-78.702293,90.114502
-0.243652,0.457764,-0.297363,11.221375,-112.870232,98.412216
-0.137695,-0.026123,-2.000000,-67.068703,-113.343513,148.274811
-0.375488,-0.646729,-2.000000,-107.122139,-129.816788,234.381683
-0.551270,-0.668213,-2.000000,-92.076332,-194.167938,248.175568
-0.439697,-0.012939,-1.326904,-10.961832,-250.137405,248.175568
0.510254,1.285889,1.799316,-5.885496,-250.137405,248.175568
1.984314,1.984314,1.984314,-45.282444,-250.137405,248.175568
1.984314,1.189941,1.984314,-241.969467,-250.137405,248.175568
1.984314,-0.055664,1.984314,-115.732826,-112.068703,31.541985
1.984314,1.274658,-0.172607,19.732824,248.175568,-223.099243
1.984314,0.919922,-1.328125,71.885498,248.175568,-250.137405
1.984314,0.002930,-2.000000,36.946564,248.175568,-250.137405
0.861328,-0.637207,-2.000000,73.717560,248.175568,-146.091599
-0.123779,-0.516113,-2.000000,95.381676,149.526718,-12.122137
-0.124023,-0.253418,-0.487305,69.389313,-14.374045,9.160305
0.319580,0.206055,1.984314,103.816795,-82.816795,-39.557251
0.920166,0.834717,1.984314,122.374046,-62.961834,-96.671753
1.572266,1.457764,1.984314,130.778625,-22.358778,-133.847336
1.984314,1.629395,1.984314,119.053436,42.778625,-137.381683
1.984314,1.599854,0.150391,109.503815,113.786263,-186.045807
1.984314,0.890869,-2.000000,58.229008,115.213737,-242.809158
1.858643,0.133057,-2.000000,-4.801527,137.198471,-173.244278
0.939941,-0.116699,-2.000000,-88.000000,185.465652,-118.343513
-0.168701,-0.307129,-0.925537,-96.251907,204.839691,-141.351151
-1.068604,-0.130615,1.719238,-81.458015,163.404587,-183.259537
-1.317139,0.165039,1.984314,-50.137405,117.145035,-139.305344
-0.706055,0.712402,1.984314,-41.931297,107.465652,-49.786259
0.133789,0.667969,0.454102,-31.496183,71.641220,2.259542
0.668945,0.138428,-2.000000,-26.488550,25.137405,22.625954
0.502930,-0.677002,-2.000000,-32.511452,-7.664122,2.984733
-0.280029,-1.467773,-2.000000,-44.793892,10.824428,1.671756
-1.157471,-1.676514,-0.717773,-43.213741,72.931297,9.290076
-1.929688,-1.326904,1.984314,-22.404581,132.778625,59.244274
-1.961426,-0.614502,1.984314,42.404579,121.244278,114.473282
-1.270508,0.221680,1.984314,88.664124,23.122137,120.687019
-0.307129,0.650391,0.744141,72.977097,-102.511452,106.839691
0.293945,0.225586,-2.000000,15.427481,-148.717560,110.145035
0.240723,-0.596191,-2.000000,-56.206108,-152.519089,160.564880
-0.479980,-1.427002,-2.000000,-87.816795,-135.732819,238.770996
-0.991699,-1.162354,-2.000000,-71.526718,-197.068695,248.175568
-0.781250,-0.092529,0.870361,-62.938931,-250.137405,248.175568
0.562500,1.614014,1.984314,-53.503819,-250.137405,248.175568
1.984314,1.984314,1.984314,-68.938934,-250.137405,248.175568
1.984314,1.984314,1.984314,-170.045807,-250.137405,248.175568
1.984314,0.667236,1.048584,-105.648857,-175.625961,67.732826
1.984314,0.927979,-2.000000,-22.183207,248.175568,-201.755722
1.984314,0.394287,-2.000000,17.824427,248.175568,-250.137405
1.984314,-0.522461,-2.000000,32.748093,248.175568,-250.137405
0.814941,-0.874756,-2.000000,71.770996,248.175568,-250.137405
-0.605713,-0.739258,-0.443604,102.908394,248.175568,-150.274811
-0.868164,0.052979,1.984314,102.442749,174.106873,-98.618324
-0.291260,0.808838,1.984314,142.938934,108.770996,-112.244278
0.800537,1.600342,1.984314,190.625961,25.641222,-138.923660
1.969971,1.984314,1.984314,210.862595,44.053436,-167.938934
1.984314,1.897705,-0.680908,228.900757,128.030533,-216.488556
1.984314,1.098877,-2.000000,191.396942,141.893127,-248.854965
1.161377,1.712891,-0.592041,78.442749,139.328247,-163.854965
1.387695,1.113770,-2.000000,-51.564884,137.030533,-109.145035
0.980713,-0.078125,-2.000000,-137.297714,144.068695,-87.045799
-0.009033,-0.960205,-2.000000,-156.687027,131.954193,-115.282440
-0.976562,-1.263184,0.405273,-87.580154,93.206108,-94.114502
-1.276855,-0.631104,1.984314,-26.648855,39.541985,-44.847328
-0.808594,0.221924,1.984314,-6.343512,-7.129771,-29.007633
-0.084717,0.617432,1.984314,-24.549618,-28.778625,-24.160305
0.485107,0.348633,-0.893555,-48.045803,-15.091603,5.038168
0.605957,-0.253662,-2.000000,-95.778625,23.702290,55.809162
0.125000,-0.789307,-2.000000,-82.221375,41.488548,62.709923
-0.758057,-1.201172,-1.652100,-53.702290,42.717556,45.427483
-1.500000,-1.115479,1.234131,-24.923664,37.251907,79.419846
-1.756592,-0.617920,1.984314,4.335878,14.274809,124.015266
-1.396484,0.062500,1.984314,8.419847,-37.473282,142.549622
-0.724365,0.597412,1.249023,-34.801525,-99.824425,158.503815
-0.199219,0.384033,-1.498291,-77.870232,-140.832062,190.702286
0.092529,0.035400,-2.000000,-73.061066,-158.038162,223.671753
-0.095459,-0.044922,-2.000000,-124.732826,-186.984726,224.221375
-0.185059,0.139160,-0.812256,-161.328247,-250.137405,248.175568
0.737549,0.930664,1.984314,-142.595413,-250.137405,248.175568
1.984314,1.135010,1.984314,-102.793892,-250.137405,248.175568
1.984314,1.197266,1.984314,-145.946564,-250.137405,248.175568
1.984314,0.677979,1.877197,-148.053436,-250.137405,-59.503819
1.984314,1.157471,-1.776367,-10.358779,248.175568,-250.137405
1.984314,1.130371,-2.000000,31.328245,248.175568,-250.137405
1.984314,0.075195,-2.000000,46.480915,248.175568,-250.137405
0.206787,-0.704346,-2.000000,78.152672,248.175568,-185.114502
-0.898926,-0.551514,-0.630127,134.435120,248.175568,-40.664124
-0.798584,0.258301,1.984314,187.068695,116.351143,-23.854961
-0.017090,1.101074,1.984314,214.297714,-38.305344,-79.083969
1.179688,1.561768,1.984314,197.923660,-125.580154,-117.694656
1.984314,1.927246,1.984314,189.335876,-36.916031,-140.312973
1.984314,1.710693,-0.546387,176.511444,106.488548,-210.015274
1.984314,1.069824,-2.000000,130.893127,194.267181,-243.274811
1.322021,0.454346,-2.000000,60.152672,236.732819,-153.580154
0.111328,0.002930,-2.000000,-51.175571,246.809158,-78.603050
-0.964600,-0.464600,-0.715332,-126.946564,202.015274,-62.778625
-1.611328,-0.416504,1.984314,-160.809158,95.496185,-104.297707
-1.366943,-0.153076,1.984314,-119.908394,-8.473283,-58.244274
-0.069824,0.622070,1.984314,-88.213737,-51.213741,20.541985
1.105957,0.668701,-0.235596,-82.412216,-74.648857,17.717558
1.470459,-0.119629,-2.000000,-90.290077,-41.755726,-20.595419
0.726318,-1.222900,-2.000000,-89.061066,31.229008,-26.832062
-0.578369,-1.787598,-2.000000,-79.770996,97.564888,14.503817
-1.717773,-1.525146,0.245605,-50.343510,112.389313,59.030533
-2.000000,-0.622803,1.984314,4.435114,55.083969,88.206108
-1.603760,0.182861,1.984314,17.259542,-38.748093,95.770996
-0.678467,0.620361,1.984314,-10.587787,-108.274811,110.984734
0.047607,0.370361,-0.729004,-43.870228,-142.206100,126.580154
0.228760,-0.370605,-2.000000,-60.526718,-153.099243,164.404587
-0.106934,-1.046631,-2.000000,-72.862595,-175.908401,211.763351
-0.698486,-1.141357,-2.000000,-89.099236,-215.206100,235.595413
-0.754395,-0.392334,0.878906,-84.870232,-250.137405,242.343506
0.177490,1.262939,1.984314,-78.381676,-250.137405,248.175568
1.984314,1.984314,1.984314,-41.549618,-250.137405,248.175568
1.984314,1.984314,1.984314,-94.931297,-250.137405,248.175568
1.984314,0.669922,0.529297,-131.450378,-250.137405,100.404579
1.984314,0.530029,-2.000000,-22.595419,169.015274,-162.870224
1.984314,0.842041,-2.000000,29.183207,248.175568,-250.137405
1.984314,0.251709,-2.000000,33.946564,248.175568,-250.137405
0.702393,-0.581299,-1.194092,40.267174,248.175568,-250.137405
-0.765625,-0.317871,1.247803,87.755722,248.175568,-140.603058
-0.973389,0.714844,1.984314,123.007637,204.290070,-86.931297
-0.192139,1.383057,1.984314,138.496185,111.740456,-93.732826
1.082764,1.791260,1.984314,166.435120,-15.267176,-110.167938
1.984314,1.608154,-0.084717,169.572525,-52.618320,-112.404579
1.984314,1.177490,-2.000000,160.015274,15.732824,-167.954193
1.941895,0.360596,-2.000000,114.969467,86.893127,-208.175568
0.607666,-0.162842,-2.000000,45.358780,163.954193,-130.648849
-0.544434,-0.205078,0.131104,-9.572519,194.358780,-72.190842
-1.131836,0.228271,1.984314,-27.038168,196.076340,-68.595421
-0.819824,0.612061,1.984314,-12.389313,130.053436,-92.442749
0.052734,0.847656,1.984314,11.534351,39.717556,-103.572517
1.034180,0.697510,-0.245361,6.900764,-23.908398,-72.175575
1.529785,0.005859,-2.000000,-19.625954,-33.824429,-41.885498
0.950439,-0.857666,-2.000000,-75.374046,7.534351,-12.175572
-0.296387,-1.438232,-1.573975,-125.778625,88.137405,21.099237
-1.366943,-1.038330,1.479004,-118.732826,148.427475,48.091602
-1.651367,-0.304199,1.984314,-71.358780,131.877869,46.969467
-1.659424,-1.079590,1.805908,-15.251908,55.625954,34.534351
-1.658936,-0.272949,1.984314,25.442749,-57.137405,61.183205
-0.748291,0.503662,1.984314,7.664122,-133.435120,81.190842
0.160645,0.594727,0.331787,-48.244274,-142.778625,90.038170
0.474609,0.023193,-2.000000,-126.748093,-77.977097,116.679390
-0.042236,-0.804199,-2.000000,-148.954193,19.282442,173.992371
-1.068359,-1.335693,-2.000000,-79.740456,57.587788,230.961838
-2.000000,-1.056152,-1.035889,-47.694656,-35.969467,248.175568
-2.000000,-0.193115,1.984314,-38.893131,-250.137405,239.984726
-0.820557,1.077393,1.984314,-78.671753,-250.137405,248.175568
1.984314,1.984314,1.984314,-117.793892,-250.137405,248.175568
1.984314,1.970947,1.984314,-145.267181,-250.137405,248.175568
1.984314,-0.072021,-2.000000,-226.435120,-250.137405,159.083969
1.984314,-0.785400,-2.000000,-129.633591,202.564880,-121.557251
1.984314,0.033447,-2.000000,-12.938931,248.175568,-250.137405
1.984314,-0.102539,-1.487793,72.259544,248.175568,-250.137405
-0.265381,-0.409912,1.025635,96.519081,248.175568,-250.137405
-1.722656,-0.104492,1.984314,160.015274,248.175568,-113.984734
-1.206055,1.077881,1.984314,182.625961,17.297710,-28.740458
0.654541,1.821289,1.984314,163.931305,-167.404587,-93.824425
1.984314,1.735352,1.168213,126.076332,-235.122131,-148.793900
1.984314,1.177734,-1.550049,89.167938,-189.618317,-136.900757
1.984314,0.655762,-2.000000,74.259544,51.183205,-147.824432
1.984314,0.026123,-2.000000,112.206108,248.175568,-204.824432
0.725098,-0.457764,-2.000000,142.671753,248.175568,-231.557251
-0.863037,-0.172607,0.451904,120.809158,248.175568,-147.870224
-1.587158,0.434082,1.984314,67.832062,248.175568,-96.870232
-1.293457,0.884277,1.984314,-14.801527,95.381676,-84.969467
-0.372559,1.014648,1.546143,-92.992363,-70.885498,-127.671753
0.551270,0.359375,-0.791260,-123.938934,-152.450378,-84.595421
1.364746,-0.237061,-2.000000,-126.160309,-128.374039,3.206107
1.219238,-0.941162,-2.000000,-149.916031,-27.045801,24.312977
0.295898,-1.320557,-1.654785,-130.427475,96.076332,-2.076336
-0.914062,-1.285889,0.916260,-72.732826,177.862595,-26.801527
-1.769287,-0.863037,1.984314,-26.412214,169.732819,5.786260
-1.745361,-0.143311,1.984314,12.763359,89.106873,43.603054
-0.960205,0.356445,1.574951,41.770992,-52.389313,83.618324
0.063721,0.427246,-1.552002,9.129771,-173.274811,89.396950
0.479004,-0.083496,-2.000000,-75.305344,-160.839691,95.793892
-0.121338,-1.095947,-2.000000,-160.641220,-74.038170,145.251907
-1.249023,-1.930664,-2.000000,-137.106873,-35.679390,212.969467
-1.853271,-1.439697,0.053223,-58.984734,-70.000000,244.923660
-1.838623,-0.231689,1.984314,-12.137404,-173.213745,238.580154
-0.729492,1.457764,1.984314,-15.503817,-250.137405,248.175568
1.984314,1.984314,1.984314,-6.053435,-250.137405,248.175568
1.984314,1.984314,1.984314,-115.061066,-250.137405,248.175568
1.984314,0.753174,-2.000000,-210.274811,-250.137405,217.206100
1.984314,-1.028076,-2.000000,-167.694656,-84.458015,-32.679390
1.984314,-0.784424,-2.000000,-39.603054,248.175568,-231.656494
1.984314,-0.405029,-0.892822,26.954199,248.175568,-250.137405
0.284424,-0.388184,1.896973,61.793892,248.175568,-250.137405
-1.279785,0.100830,1.984314,163.610687,248.175568,-189.396942
-1.334229,1.396484,1.984314,232.870224,235.000000,-62.900764
0.090088,1.984314,1.984314,211.877869,-22.732824,-55.961834
1.706299,1.984314,-0.580078,156.106873,-187.885498,-95.862595
1.984314,1.216553,-2.000000,80.885498,-215.160309,-86.366409
1.984314,0.245117,-2.000000,39.251907,-63.664124,-101.145035
1.760254,-0.404297,-2.000000,32.908398,114.717560,-203.312973
0.186035,-0.578369,0.267822,55.809162,248.175568,-135.160309
-0.753174,0.039063,1.984314,49.549618,248.175568,-54.633587
-0.701172,0.753174,1.984314,11.145039,221.496185,-41.083969
0.001221,1.077148,1.984314,-12.511451,89.435112,-69.732826
1.001465,0.989258,0.211426,-30.885496,-38.969467,-124.908394
1.483398,0.209229,-2.000000,-45.740459,-95.977097,-130.198471
1.307373,-0.571777,-2.000000,-50.129772,-66.885498,-77.702293
0.513916,-0.906982,-2.000000,-81.931297,15.557252,-55.519085
-0.581787,-0.841553,0.103516,-89.030533,103.648857,-46.587788
-1.401367,-0.474609,1.984314,-74.190842,144.435120,-22.603054
-1.313965,0.225098,1.984314,-41.000000,127.961830,15.648855
-0.533447,0.690430,1.984314,2.068702,38.091602,48.885498
0.395264,0.515137,-0.636719,7.427481,-54.595421,54.969467
0.780518,-0.238281,-2.000000,-3.190840,-131.091599,31.351145
0.385498,-1.086426,-2.000000,-45.030533,-125.732826,59.709923
-0.479492,-1.375244,-1.809570,-84.916031,-41.503819,100.198471
-1.363037,-1.160156,0.872070,-96.587784,43.511452,136.946564
-1.879639,-0.700439,1.984314,-81.152672,95.114502,172.015274
-1.760742,-0.049561,1.984314,-35.870228,80.167938,191.900757
-1.162842,0.745850,1.524902,13.198473,-34.786259,200.061066
-0.234619,1.126953,-1.354004,29.206106,-232.717560,196.870224
0.796143,1.070557,-2.000000,-55.549618,-250.137405,191.603058
1.785645,1.984314,-0.012695,-133.908401,-250.137405,248.175568
1.984314,1.708496,-1.468262,-214.290070,-250.137405,248.175568
1.984314,-0.642822,-2.000000,-202.641220,-250.137405,248.175568
1.984314,-1.898682,-1.244873,-176.717560,-250.137405,162.877869
1.984314,-1.208252,0.443604,-18.419847,248.175568,-149.984726
1.984314,0.276123,1.984314,53.908398,248.175568,-250.137405
0.894775,0.593994,1.984314,91.816795,248.175568,-250.137405
-0.067139,0.670898,1.984314,133.351151,248.175568,-250.137405
-0.164795,1.245605,1.106934,154.839691,120.137405,-158.618317
0.926270,1.595703,-1.755859,98.977097,-75.519081,-67.099236
1.984314,1.112793,-2.000000,44.122139,-165.709930,-84.366409
1.984314,0.252930,-2.000000,27.610687,-76.083969,-102.625954
1.984314,-0.269775,-0.959473,60.916031,63.816795,-105.190842
1.360107,-0.075928,1.687744,119.793892,171.458008,-124.068703
0.612305,0.397949,1.984314,164.870224,245.106873,-145.885498
0.563232,1.090332,1.984314,216.755722,225.396942,-204.648849
0.689697,1.483398,1.984314,211.221375,139.656494,-250.137405
1.150879,1.693604,-0.752686,117.122139,108.625954,-170.267181
1.578613,1.604980,-2.000000,-28.969465,109.412216,-112.671753
1.137207,0.341309,-2.000000,-154.000000,119.519081,-130.450378
-0.026123,-0.911133,-2.000000,-191.045807,103.320610,-165.740463
-1.187500,-1.491943,0.642334,-181.435120,120.366409,-94.740456
-1.410645,-0.722168,1.984314,-123.213737,126.916031,14.396947
-0.578613,0.438721,1.984314,-68.725189,60.282444,45.175571
0.548584,0.861328,0.495361,-32.213741,-20.648855,6.770992
1.003418,0.149658,-2.000000,-55.465649,-33.511452,-33.297710
0.425537,-0.901123,-2.000000,-92.954201,45.175571,-13.480916
-0.788086,-1.576660,-2.000000,-77.206108,125.992363,36.129772
-2.000000,-1.656250,-0.247314,-28.671755,130.656494,104.572517
-2.000000,-0.909668,1.984314,24.564886,49.938931,142.824432
-2.000000,-0.078369,1.984314,25.175573,-45.412212,149.778625
-1.453125,0.339111,1.979492,1.190840,-150.206100,162.625961
-0.578857,0.351318,-0.766357,-21.633587,-241.435120,208.045807
0.254883,-0.038574,-2.000000,-21.862595,-250.137405,231.862595
0.509277,-0.552002,-2.000000,-87.381676,-250.137405,248.175568
0.765137,-0.104980,-1.503662,-101.908394,-250.137405,248.175568
1.984314,1.473633,1.973633,-53.923664,-250.137405,248.175568
1.984314,1.976318,1.984314,-109.618324,-250.137405,248.175568
1.984314,0.492920,1.984314,-190.198471,-250.137405,248.175568
1.984314,-0.134277,1.984314,-99.167938,22.992367,34.259541
1.984314,0.764160,-0.605713,33.877861,248.175568,-202.557251
1.984314,1.056641,-2.000000,98.709923,248.175568,-250.137405
1.984314,0.434082,-2.000000,45.274811,248.175568,-250.137405
1.071777,-0.289063,-2.000000,23.152672,248.175568,-201.732819
-0.133545,-0.414062,0.117920,56.961834,210.954193,-121.854965
-0.244873,0.323730,1.984314,105.305344,131.458008,-69.832062
0.434814,1.015381,1.984314,144.305344,57.870228,-107.763359
1.414551,1.391846,1.984314,168.053436,-6.931298,-142.740463
1.984314,1.529053,0.973633,177.931305,2.450382,-160.160309
1.984314,1.064941,-1.954102,166.656494,71.992363,-165.610687
1.984314,0.671875,-2.000000,146.236649,109.648857,-237.419846
1.115479,0.078125,-2.000000,118.099236,170.694656,-204.572525
-0.168213,-0.044678,-1.157471,50.610687,233.374039,-105.221375
-0.904053,0.349854,1.894531,-7.251908,238.343506,-56.488548
-0.897461,0.733643,1.984314,-71.488548,153.969467,-92.618324
-0.248779,0.778320,1.984314,-74.511452,23.267176,-156.221375
0.572754,0.268066,0.330322,-80.290077,-81.290077,-128.595413
1.239258,-0.420654,-2.000000,-94.473282,-74.931297,-24.603054
1.098877,-1.047607,-2.000000,-121.061066,5.206107,44.328243
0.016113,-1.398193,-2.000000,-132.190842,95.519081,63.610687
-1.048340,-0.825195,0.758545,-134.702286,135.503815,51.984734
-1.577393,-0.055908,1.984314,-74.694656,128.877869,17.702290
-1.177979,0.435303,1.984314,-10.763359,52.450382,23.793894
-0.135742,0.637939,1.095703,18.427481,-54.763359,26.389313
0.674316,0.115723,-2.000000,13.458015,-142.244278,48.167938
0.907715,-0.466309,-2.000000,-38.816795,-144.618317,83.679390
0.158203,-1.033936,-2.000000,-90.091606,-70.290077,95.015266
-0.964355,-1.198730,-0.310303,-106.656487,13.938931,120.374046
-1.676025,-0.776123,1.984314,-62.412212,54.625954,153.022903
-1.571533,-0.054687,1.984314,1.954198,33.488548,171.114502
-0.833740,0.639160,1.984314,41.496181,-20.389313,184.473282
0.125732,1.243652,0.228027,87.290077,-121.145035,181.251907
0.689453,1.387939,-2.000000,23.160305,-210.610687,189.809158
0.871582,1.126709,-2.000000,-56.748093,-250.137405,184.625961
1.047852,1.165283,-2.000000,-153.633591,-250.137405,238.221375
1.644287,1.146973,1.541260,-249.862595,-250.137405,248.175568
1.984314,0.028320,1.984314,-250.137405,-250.137405,248.175568
1.984314,-0.366699,1.984314,-161.282440,-250.137405,245.145035
1.984314,0.687012,1.984314,0.610687,22.343512,-74.702293
1.984314,1.054443,-0.626221,60.633587,248.175568,-239.030533
1.984314,0.857666,1.984314,71.030533,248.175568,-250.137405
0.956055,0.744629,1.326416,120.190842,248.175568,-250.137405
0.186035,0.847168,-2.000000,160.854965,218.450378,-142.305344
0.709229,0.944092,-2.000000,90.954201,-41.900764,-20.419847
1.405273,0.329590,-2.000000,46.259541,-114.572517,-16.694656
1.421875,-0.369385,-0.505859,47.297710,-59.030533,-59.664124
1.018066,-0.356689,1.984314,92.114502,61.641220,-93.717560
0.728760,0.291260,1.984314,137.122131,75.549622,-102.740456
1.022217,1.082520,1.984314,150.152664,63.862595,-114.381676
1.681396,1.505127,1.984314,160.961838,79.793892,-164.671753
1.894775,1.213135,-1.260498,128.694656,67.633591,-221.786255
1.692383,0.560059,-2.000000,44.564884,98.229004,-136.763351
1.025146,-0.070557,-2.000000,-29.320610,164.923660,-60.465649
-0.145752,-0.542480,-1.564941,-62.427483,202.053436,-38.954197
-1.190430,-0.444824,1.615234,-72.557251,168.526718,-47.900764
-1.401855,0.253174,1.984314,-34.961834,72.641220,-61.748093
-0.741211,0.934082,1.984314,14.236641,-54.183205,-83.709923
0.353516,1.074951,0.480713,15.152672,-123.137405,-66.656487
1.138672,0.541504,-2.000000,-38.450382,-92.045799,-37.374046
0.927246,-0.454102,-2.000000,-73.732826,9.015267,-6.167939
-0.139648,-1.200195,-2.000000,-77.709923,93.580154,28.603054
-1.208008,-1.038086,0.634033,-27.740458,121.190842,58.900764
-1.622070,-0.376221,1.984314,12.534351,66.694656,84.076332
-1.092529,0.320557,1.984314,23.572519,-15.679389,100.793892
-0.107178,0.712402,1.818604,10.412213,-87.877861,106.282440
0.700684,0.604492,-1.120850,-6.305344,-104.045799,98.320610
0.886719,0.038330,-2.000000,-31.625954,-78.000000,94.763359
0.239258,-0.668457,-2.000000,-79.969467,-23.725191,108.862595
-0.868408,-1.117676,-1.970947,-94.221375,15.183207,155.206100
-1.613525,-0.609375,1.063232,-44.290077,3.923664,209.541992
-1.552490,0.757324,1.984314,-4.595420,-82.946564,221.595413
-0.231934,1.984314,1.984314,-44.396946,-220.709930,248.175568
1.984314,1.984314,1.984314,-125.557251,-250.137405,248.175568
1.984314,1.429688,-0.854492,-207.977097,-250.137405,248.175568
1.984314,-0.895264,-2.000000,-224.251907,-250.137405,248.175568
1.984314,-1.630127,-2.000000,-116.916031,-61.480915,-68.809158
1.984314,-0.972168,-1.522949,-39.587788,248.175568,-250.137405
1.329346,-1.029785,1.429688,15.244275,248.175568,-250.137405
-1.078369,-0.542725,1.984314,106.305344,248.175568,-250.137405
-1.981445,0.629395,1.984314,209.694656,248.175568,-116.931297
-0.780762,1.798096,1.984314,154.419846,-69.030533,-21.007633
1.370605,1.880127,0.388428,98.778625,-250.137405,-38.725189
1.984314,0.922852,-1.915039,59.603054,-250.137405,-73.954201
1.984314,0.292725,-2.000000,45.557251,-166.587784,-113.740456
1.984314,-0.113281,-2.000000,46.702290,28.038168,-147.847336
1.506104,-0.454590,-0.380859,74.320610,210.427475,-134.748093
0.402100,-0.021729,1.984314,137.702286,248.175568,-145.931305
-0.365234,0.513184,1.984314,183.572525,248.175568,-184.366409
-0.407227,1.082031,1.984314,161.099243,205.954193,-157.190842
0.294189,1.536377,1.021484,87.435112,85.946564,-110.229004
1.072021,1.442139,-2.000000,-23.641222,-6.282443,-79.793892
1.207275,0.619385,-2.000000,-126.526718,-48.374046,-65.351143
0.589844,-0.403809,-2.000000,-181.320618,-27.381680,-63.557251
-0.375244,-0.966553,-0.970947,-143.587784,25.862595,-79.961830
-1.028320,-0.798096,1.984314,-55.381680,79.824425,-54.404579
-0.992432,-0.036865,1.984314,19.511450,105.854965,-21.465649
-0.353516,0.616699,1.984314,59.900764,74.625954,-12.343512
0.340820,0.713379,0.376709,50.992367,6.442748,5.610687
0.795166,0.326416,-2.000000,18.251909,-58.465649,33.427483
0.732178,-0.158936,-2.000000,-24.511450,-86.801529,40.572517
0.223145,-0.687988,-2.000000,-50.557251,-63.725189,49.366413
-0.450195,-0.901611,-0.071533,-62.351147,-4.465649,56.923664
-1.009766,-0.739502,1.984314,-46.603054,79.816795,86.114502
-1.091064,-0.174316,1.984314,3.847328,102.801529,98.793892
-0.577393,0.513184,1.984314,44.923664,34.648853,101.297707
0.322754,1.025146,0.543457,53.022900,-79.083969,102.465652
0.957520,0.686523,-2.000000,8.267176,-155.427475,96.389313
0.756104,-0.195312,-2.000000,-98.702293,-171.770996,128.977097
0.041260,-0.753906,-2.000000,-111.610687,-118.961830,172.099243
-0.802002,-0.563477,-0.456299,-96.206108,-61.053436,210.190842
-1.009521,0.744629,1.984314,-110.396950,-60.511452,248.175568
-0.061523,1.839111,1.984314,-141.488556,-132.740463,248.175568
1.984314,1.984314,1.984314,-150.175568,-250.137405,248.175568
1.984314,1.027100,0.718750,-139.343506,-250.137405,248.175568
1.984314,-0.082031,-2.000000,-90.435112,-250.137405,154.335876
1.984314,-0.569336,-2.000000,-21.305344,-99.000000,-111.595421
1.984314,-0.476318,-2.000000,-19.198473,248.175568,-250.137405
1.071777,-0.962891,0.446289,-17.213741,248.175568,-250.137405
-1.393555,-0.730957,1.984314,37.496181,248.175568,-188.900757
-1.997803,0.509521,1.984314,78.984734,162.320618,-51.435116
-0.333740,1.447754,1.984314,75.366409,-109.091606,19.946566
0.336670,0.755859,1.984314,98.664124,-250.137405,-0.656489
1.976807,1.283447,1.984314,110.458015,-250.137405,-51.702290
1.984314,1.712891,1.327393,96.954201,-195.190842,-117.404579
1.984314,1.317139,-1.662354,67.099236,-24.679390,-153.320618
1.984314,0.509033,-2.000000,44.961834,136.282440,-143.977097
1.984314,-0.119629,-2.000000,61.801525,241.664124,-168.229004
0.558350,-0.502441,-1.550293,104.709923,248.175568,-173.099243
-0.526123,-0.185791,1.167969,147.954193,234.778625,-137.206100
-0.971191,0.512939,1.984314,124.732826,144.908401,-108.381676
-0.555176,1.293945,1.984314,43.564884,49.519085,-70.748093
0.493896,1.676025,1.084229,-49.221375,-11.801527,-51.725189
1.285645,1.259766,-1.803711,-127.022903,-42.076336,-76.412216
1.336670,0.153564,-2.000000,-158.908401,-21.465649,-98.587784
0.621338,-0.990967,-2.000000,-135.648849,45.358780,-84.038170
-0.397949,-1.496826,-1.022705,-65.870232,127.015266,-22.770992
-1.135498,-1.051514,1.984314,7.366412,155.473282,29.320610
-1.271240,-0.243164,1.984314,59.824429,109.557251,52.603054
-0.610596,0.596924,1.984314,72.732826,25.419847,57.625954
0.193359,0.920654,0.724365,42.923664,-45.083969,32.229008
0.759521,0.559570,-2.000000,-2.877863,-66.519081,21.511450
0.840576,-0.154541,-2.000000,-30.358778,-56.717556,40.618320
0.360840,-0.902100,-2.000000,-51.251907,6.465649,63.267174
-0.523682,-1.391602,-1.211670,-62.129772,70.763359,102.862595
-1.329834,-1.288330,1.752197,-15.251908,102.679390,134.900757
-1.677979,-0.548096,1.984314,40.625954,70.572517,144.091599
-1.375244,0.258301,1.984314,59.519085,-18.793894,144.091599
-0.606689,1.021729,1.479980,3.015267,-140.870224,132.427475
0.414307,1.171631,-1.143311,-21.259542,-250.137405,138.694656
1.238037,1.042236,-2.000000,-63.595421,-250.137405,159.916031
1.854004,0.951416,-2.000000,-106.893127,-250.137405,215.114502
1.984314,0.729980,-1.744873,-170.259537,-250.137405,248.175568
1.984314,-0.048096,1.697021,-200.664124,-250.137405,248.175568
1.984314,-0.425293,1.984314,-122.656487,-250.137405,248.175568
1.984314,0.003418,1.984314,-16.534351,199.916031,-43.618320
1.984314,1.168701,1.984314,33.480915,248.175568,-220.885498
1.984314,1.097412,-0.377197,39.442749,207.083969,-250.137405
1.984314,0.511230,-2.000000,38.610687,224.580154,-250.137405
1.393799,0.047363,-2.000000,45.022900,172.709930,-200.030533
0.721680,-0.339600,-2.000000,34.053436,83.511452,-119.290077
0.395752,-0.440918,-0.187500,41.465649,49.320610,-85.000000
0.292969,-0.041016,1.984314,72.229004,75.946564,-92.412216
0.450439,0.655273,1.984314,128.221375,116.412216,-114.290077
1.070313,1.396729,1.984314,187.763351,97.908394,-158.786255
1.656738,1.726074,1.079346,189.236649,22.083969,-235.717560
1.961182,1.352783,-1.575195,153.419846,14.305344,-193.992371
1.944824,0.796387,-2.000000,84.763359,52.259541,-142.549622
1.243652,0.039063,-2.000000,16.267176,105.900764,-110.969467
0.138184,-0.397949,-0.956055,-40.000000,168.450378,-76.030533
-0.758545,-0.238770,1.948242,-87.801529,190.709930,-56.534351
-0.873047,0.228760,1.984314,-73.740456,149.946564,-60.908398
-0.226807,0.710937,1.984314,-56.167938,76.259544,-80.824425
0.653320,0.655518,0.428711,-24.725191,-13.030535,-89.580154
1.201416,0.109131,-2.000000,-12.450381,-51.366413,-77.656487
0.960937,-0.556396,-2.000000,-31.381680,-25.633587,-64.511452
-0.052002,-1.084473,-2.000000,-56.351147,44.595421,-37.748093
-1.166992,-1.128418,0.101074,-48.541985,111.610687,8.389313
-1.785156,-0.613770,1.984314,-28.312977,122.236641,53.885498
-1.402832,0.211914,1.984314,16.343512,66.816795,80.091606
-0.341553,0.779053,1.984314,48.938931,-26.442749,88.030533
0.560791,0.569580,-0.995605,33.801525,-84.480919,92.000000
0.692139,-0.253662,-2.000000,-4.297710,-71.893127,102.992363
-0.218994,-1.105225,-2.000000,-62.488548,-13.068703,129.267181
-1.572266,-1.366943,-1.927002,-113.893127,28.160305,175.290070
-2.000000,-0.783936,1.325928,-132.465652,2.862595,225.946564
-2.000000,0.536133,1.984314,-97.839691,-112.916031,248.175568
-0.412109,1.984314,1.984314,-37.984734,-250.137405,248.175568
1.984314,1.984314,1.316650,-76.106873,-250.137405,248.175568
1.984314,1.835693,-1.458008,-145.793900,-250.137405,248.175568
1.984314,-0.697266,-2.000000,-202.053436,-250.137405,248.175568
1.984314,-1.664795,-2.000000,-169.480911,41.274811,-71.633591
1.984314,-1.157471,-1.568359,-78.587784,248.175568,-250.137405
1.264648,-0.749756,1.804688,-25.175573,248.175568,-250.137405
-0.844727,-0.125488,1.984314,70.526718,248.175568,-250.137405
-1.711182,0.981201,1.984314,189.114502,248.175568,-159.435120
-0.668701,1.984314,1.308105,153.564880,-26.419847,-38.175571
1.434326,1.802246,-0.854736,105.160309,-250.137405,-10.503817
1.984314,0.813232,-2.000000,50.656490,-250.137405,-41.641220
1.984314,-0.150391,-2.000000,23.412214,-175.274811,-91.213737
1.984314,-0.630859,-1.307617,22.938931,4.923664,-118.458015
1.323730,-0.524414,1.238037,57.496181,126.984734,-127.893127
1.886475,-0.483154,-2.000000,86.725189,244.022903,-168.160309
0.480713,-0.470459,0.252197,171.267181,248.175568,-195.206100
-0.557129,0.079834,1.984314,187.290070,241.587784,-179.351151
-0.715332,0.965820,1.984314,142.885498,141.465652,-161.335876
-0.100098,1.789551,1.984314,29.137405,39.152672,-134.564880
0.823730,1.669434,-0.835205,-121.007637,-12.778625,-89.458015
1.273438,0.614258,-2.000000,-211.870224,20.862595,-54.305344
0.733398,-0.818115,-2.000000,-208.099243,94.877861,-41.519085
-0.489502,-1.746338,-2.000000,-137.709930,133.725189,-48.000000
-1.590088,-1.648438,1.078369,-30.083969,92.534348,-27.343512
-1.823975,-0.731689,1.984314,28.000000,26.137405,26.236641
-1.131592,0.200439,1.984314,31.862595,-51.534351,53.916031
-0.189209,0.534912,1.157227,12.091603,-93.961830,72.946564
0.446045,0.226807,-1.912109,-33.381680,-80.030533,90.824425
1.574951,0.978271,1.984314,150.145035,115.946564,-113.274811
0.330322,-0.165283,1.984314,141.977097,248.175568,-99.885498
0.270264,0.974365,1.984314,176.091599,181.977097,-183.770996
0.502197,1.320801,1.984314,176.702286,59.793892,-201.977097
1.229248,1.750244,-0.551758,93.114502,21.099237,-116.885498
1.674805,1.368408,-2.000000,-26.122137,16.396946,-64.068703
1.354004,0.350342,-2.000000,-125.251907,42.396946,-63.755726
0.348145,-0.765137,-2.000000,-149.801529,100.801529,-60.679390
-0.693604,-0.888916,-0.308350,-129.809158,140.343506,-84.267174
-1.420410,-0.598877,1.984314,-65.702293,129.656494,-70.129768
-1.269043,-0.003662,1.984314,-1.320611,81.030533,-17.045801
-0.388916,0.552979,1.984314,12.931297,18.938931,30.396946
0.544189,0.714111,-0.074707,-4.992366,-22.229008,33.801525
0.883301,0.323975,-2.000000,-36.152672,-34.442749,11.366412
0.489502,-0.449707,-2.000000,-46.229008,-30.458015,18.832062
-0.269043,-1.151855,-2.000000,-37.793892,-5.343512,45.946564
-0.956055,-1.312500,-0.756592,-13.076336,13.068703,70.290077
-1.441162,-1.002197,1.888184,19.412214,53.297710,82.312981
-1.800781,-0.564941,1.984314,43.068703,94.526718,99.801529
-1.786865,0.078613,1.984314,26.488550,69.946564,134.251907
-1.328125,0.458008,1.984314,-4.442748,-37.557251,164.343506
-0.588379,0.452393,-0.301514,12.480916,-142.351151,194.137405
0.126709,0.448975,-2.000000,-54.717556,-250.137405,218.854965
1.163574,0.742920,-2.000000,-87.946564,-250.137405,243.648849
1.984314,0.801270,-2.000000,-118.931297,-250.137405,248.175568
1.984314,0.192139,-0.659912,-189.854965,-250.137405,248.175568
1.984314,-0.400146,1.984314,-229.068695,-250.137405,248.175568
1.984314,-1.987793,1.368408,-165.114502,248.175568,-71.732826
1.984314,0.857178,1.984314,-5.900764,248.175568,-233.580154
1.450439,1.064697,1.984314,76.511452,240.015274,-250.137405
1.235352,1.083008,1.673584,154.916031,248.175568,-250.137405
0.679443,1.195313,-0.854736,175.190842,208.297714,-189.687027
0.500732,1.341309,-2.000000,138.190842,11.625955,-71.648857
0.879883,0.712158,-2.000000,41.137405,-169.122131,3.351145
1.295410,-0.002197,-1.892090,-15.763359,-218.305344,7.137404
1.377441,-0.527588,0.615967,-10.778625,-118.175575,-22.809160
1.345947,-0.257813,1.984314,65.641220,39.580154,-74.656487
1.239990,0.593506,1.984314,141.496185,177.755722,-127.625954
1.358887,1.330322,1.984314,177.740463,222.519089,-157.343506
1.728760,1.481445,1.961426,183.587784,224.175568,-188.000000
1.936279,1.461914,-0.926758,145.427475,169.351151,-250.137405
1.616211,0.804932,-2.000000,80.480919,79.969467,-238.801529
0.979004,-0.114014,-2.000000,-63.473282,33.450382,-143.267181
0.083740,-0.945312,-2.000000,-188.183212,69.229004,-48.152672
-0.945068,-1.156738,-0.914551,-222.175568,100.458015,-16.786259
-1.689941,-0.770996,1.984314,-165.213745,134.732819,-17.656488
-1.777344,-0.177979,1.984314,-79.908394,121.061066,-15.305344
-1.224609,0.276367,1.984314,-17.091602,62.961834,-1.114504
-0.362061,0.264648,1.134521,22.175573,-19.786259,24.625954
0.359131,-0.075928,-1.697021,38.366413,-94.381676,52.061069
0.529785,-0.517090,-2.000000,15.412213,-128.923660,60.664124
0.043457,-0.969971,-2.000000,-28.473282,-114.259544,63.343510
-0.888916,-1.250488,-2.000000,-66.603050,-52.007633,87.740456
-1.878174,-1.276855,0.631104,-99.129768,16.167938,148.900757
-0.886719,-1.044922,-2.000000,-110.236641,20.053434,226.114502
-1.416748,-0.631836,0.127197,-68.984734,-35.877861,248.175568
-0.952637,0.610840,1.984314,-30.954199,-189.045807,248.175568
0.792236,1.858643,1.984314,-77.549622,-250.137405,248.175568
1.984314,1.978027,1.984314,-131.442749,-250.137405,248.175568
1.984314,1.065186,0.768555,-168.244278,-250.137405,248.175568
1.984314,0.004150,-2.000000,-92.709923,10.236641,-64.183205
1.984314,0.565918,-2.000000,-35.145039,248.175568,-250.137405
1.984314,-0.291504,-2.000000,11.824428,248.175568,-250.137405
-0.005371,-0.942871,-1.257813,33.053436,248.175568,-211.816788
-1.521240,-0.558350,0.555664,76.160309,245.717560,-66.755722
-1.407471,0.215088,1.984314,91.702293,-9.335877,24.503817
0.054932,1.153809,1.984314,116.885498,-202.625961,4.618320
1.749756,1.490723,1.984314,120.824425,-250.137405,-57.564884
1.984314,1.357666,0.434326,85.374046,-190.427475,-94.473282
1.984314,0.885254,-2.000000,70.877861,-55.877861,-104.931297
1.984314,0.127441,-2.000000,60.618320,82.984734,-139.870224
1.791260,-0.562012,-2.000000,99.099236,210.076340,-130.809158
0.435059,-0.504883,-0.540039,131.595413,248.175568,-109.328247
-0.621826,0.067139,1.979736,125.847328,240.343506,-110.229004
-0.883301,0.780273,1.984314,81.541985,165.687027,-68.824425
-0.090820,1.607910,1.984314,34.618320,60.137405,-39.496181
0.982422,1.698242,0.208740,-42.938931,-32.969467,-74.541985
1.535889,0.834717,-2.000000,-96.511452,-58.572517,-115.114502
1.230957,-0.329102,-2.000000,-136.076340,-9.305344,-104.564888
0.259766,-1.111328,-2.000000,-116.503815,85.259544,-47.045803
-0.729736,-0.986816,0.016602,-76.419846,154.977097,2.442748
-1.256348,-0.303711,1.984314,-16.687023,149.580154,20.534351
-0.974609,0.467773,1.984314,25.603054,78.435112,-14.496183
-0.310547,0.680908,1.984314,18.709923,-10.572519,-43.625954
0.361572,0.375000,-0.402832,-1.106870,-52.137405,-21.236641
0.776855,-0.028564,-2.000000,-37.458015,-64.473282,15.839695
0.582031,-0.654541,-2.000000,-58.603054,-31.335878,33.946564
-0.148926,-1.286865,-2.000000,-50.015266,33.152672,39.770992
-1.090332,-1.575928,-0.137207,-39.267174,99.274811,61.702290
-1.779053,-1.230957,1.984314,0.320611,125.389313,94.984734
-1.890137,-0.383545,1.984314,54.320610,90.755722,109.282440
-1.459229,0.639404,1.984314,30.503817,-5.167939,122.404579
-0.740234,1.051270,1.146484,8.343512,-97.442749,123.137405
0.053711,1.077637,-1.527832,-55.229008,-186.160309,161.526718
0.940430,1.159180,-2.000000,-50.877861,-250.137405,221.335876
1.729248,1.433838,-2.000000,-117.656487,-250.137405,248.175568
1.984314,1.030273,-1.089844,-250.137405,-250.137405,248.175568
1.984314,-0.841553,1.689697,-250.137405,-250.137405,248.175568
1.984314,-1.864746,1.984314,-145.740463,107.984734,-14.992367
1.984314,-0.216797,1.984314,-21.137405,248.175568,-250.137405
1.661133,0.527832,1.984314,69.297707,248.175568,-250.137405
0.120850,0.873779,1.984314,203.290070,248.175568,-250.137405
-0.957520,1.612305,-1.738525,232.687027,220.435120,-149.038162
-0.252441,1.666992,-2.000000,65.374046,-154.740463,-0.877863
0.998291,0.581055,-2.000000,-16.374046,-250.137405,44.450382
1.615723,-0.406250,-1.642334,-57.717556,-250.137405,36.450382
1.678223,-0.905029,0.801025,-14.412213,-188.396942,-6.198473
1.501465,-0.560059,1.984314,76.954201,12.106871,-67.580154
1.179688,0.317139,1.984314,168.099243,171.244278,-111.358780
1.113037,1.235596,1.984314,217.603058,184.885498,-118.992363
1.508057,1.699707,1.984314,219.129776,136.160309,-123.641220
1.982910,1.709961,-0.479248,194.129776,79.961830,-163.564880
1.926025,1.187988,-2.000000,141.847336,19.183207,-214.442749
1.425537,0.505615,-2.000000,35.618320,13.603053,-143.419846
0.662598,-0.087891,-2.000000,-74.755722,41.198475,-69.839691
-0.190674,-0.542236,-1.346680,-155.977097,90.465652,-33.595421
-0.853271,-0.729248,1.537842,-172.366409,135.625961,-35.763359
-1.054443,-0.384521,1.984314,-131.068695,154.396942,-56.297710
-0.684326,0.235107,1.984314,-40.137405,127.190842,-68.374046
0.010986,0.696289,1.830322,34.335876,54.335876,-70.801529
0.676025,0.721924,-1.001221,65.877861,-25.954199,-58.412212
0.907959,0.324219,-2.000000,17.396946,-67.824425,-36.305344
0.477295,-0.629883,-2.000000,-46.816795,-41.778625,-2.022901
-0.448975,-1.303467,-2.000000,-94.419846,24.000000,42.572517
-1.384033,-1.380371,0.301758,-99.984734,71.198471,80.221375
-1.903320,-0.927979,1.984314,-64.297707,99.763359,107.992363
-1.723389,-0.251465,1.984314,-20.106871,79.366409,120.381676
-1.040283,0.416992,1.984314,19.572519,20.488550,127.099236
-0.203369,0.741943,0.947998,38.580154,-50.885498,128.633591
0.386475,0.607910,-1.764404,31.251909,-126.061066,126.053436
0.524658,0.288330,-2.000000,-40.770992,-189.603058,148.564880
0.524902,0.223145,-2.000000,-87.580154,-236.610687,188.465652
0.525879,0.998779,-1.919434,-149.664124,-233.259537,248.175568
1.003906,1.282959,1.321289,-250.137405,-233.984726,248.175568
1.984314,-0.141113,-1.527344,-250.137405,-250.137405,248.175568
1.984314,-1.705322,0.502686,-223.931305,-250.137405,248.175568
1.984314,-1.155029,1.984314,-33.251907,35.916031,-18.244274
1.984314,0.366211,1.984314,31.366413,248.175568,-246.389313
0.893311,0.916016,1.984314,101.259544,248.175568,-250.137405
-0.943848,1.052734,1.763672,152.099243,248.175568,-227.900757
-0.730957,1.722656,-1.844482,76.557251,-62.480915,-26.809160
1.176758,1.151611,-2.000000,-54.900764,-250.137405,76.908394
1.984314,-0.021973,-2.000000,-76.557251,-250.137405,68.977097
1.984314,-0.935547,-1.083740,-47.473282,-250.137405,22.931297
1.984314,-1.138672,1.364990,9.229008,-90.793892,-34.290077
1.465576,-0.299316,1.984314,129.679382,99.580154,-96.809158
0.968750,0.791992,1.984314,214.366409,135.885498,-118.908394
1.111572,1.583984,1.984314,197.893127,61.236641,-104.259544
1.820068,1.768066,0.857910,133.671753,7.442748,-102.038170
1.984314,1.222900,-1.915527,58.435116,-25.122137,-159.007629
1.980469,0.251465,-2.000000,29.312977,2.343511,-140.572525
1.227783,-0.349365,-2.000000,-20.587786,93.160309,-62.763359
0.125488,-0.551514,-1.452637,-45.473282,179.328247,23.900763
-0.622559,-0.117920,1.340088,-35.671757,189.114502,45.229008
-0.769531,0.633789,1.984314,-29.938931,130.610687,-37.045803
-0.474609,1.147217,1.984314,-45.068703,13.839695,-98.137405
0.282227,0.989502,1.105469,-41.000000,-65.206108,-47.282444
1.318604,0.753906,-1.825439,-82.832062,-64.000000,29.190840
1.535889,0.008301,-2.000000,-98.076332,-6.809160,17.610687
0.880371,-0.853516,-2.000000,-82.641220,74.870232,-15.618320
-0.269531,-1.207031,-1.198242,-21.038168,141.877869,-24.755726
-1.103271,-0.777588,1.697754,48.702290,156.442749,-10.839695
-1.271484,-0.046143,1.984314,89.893127,107.450378,-14.076336
-0.711426,0.717773,1.984314,83.557251,23.374046,-20.480917
0.225586,0.906006,1.181641,39.816795,-34.106869,-12.977099
0.959473,0.605469,-1.749756,-17.732824,-66.419846,-0.755725
1.102295,0.012451,-2.000000,-57.229008,-51.305344,12.290076
0.682617,-0.639404,-2.000000,-58.755726,-1.160305,19.687023
-0.064941,-0.979004,-1.937256,-29.961832,54.221375,16.618320
-0.875000,-1.052490,0.640869,-20.267176,93.022903,38.702290
-1.375977,-0.799316,1.984314,14.221375,111.793892,74.977097
-1.360840,-0.053711,1.984314,59.465649,83.267174,84.847328
-0.821777,0.887451,1.984314,102.557251,14.984733,94.213737
-0.100586,1.250244,-0.012207,52.083969,-68.183205,103.427483
0.333252,0.839844,-2.000000,-1.969466,-82.541985,128.595413
0.205811,0.241455,-2.000000,-35.290077,-102.320610,163.908401
-0.067627,0.393311,-2.000000,-77.961830,-156.297714,193.679382
0.246582,0.954834,0.057861,-134.893127,-250.137405,248.175568
1.984314,0.954102,1.984314,-211.778625,-250.137405,248.175568
1.984314,-0.631104,1.984314,-250.137405,-250.137405,248.175568
1.984314,-1.219238,1.984314,-107.702293,142.282440,-58.122139
1.984314,0.403809,0.083008,-16.076336,248.175568,-250.137405
1.984314,0.527100,-0.281006,111.007637,248.175568,-250.137405
0.918701,0.695557,-1.985840,217.671753,248.175568,-250.137405
-1.157959,0.991211,-2.000000,172.152664,213.335876,-165.061066
-0.921387,0.383789,-2.000000,-8.671756,-179.847336,33.511452
0.156250,-0.237549,-0.049561,-54.251907,-250.137405,96.755722
0.993896,-0.219727,1.984314,-26.458015,-250.137405,52.244274
1.676025,0.030273,1.984314,44.221375,-124.732826,-37.931297
1.984314,0.556641,1.984314,127.312981,62.732826,-136.381683
1.984314,1.115479,1.984314,187.396942,178.419846,-183.595413
1.984314,1.473877,0.573242,207.335876,163.366409,-184.229004
1.984314,1.368408,-2.000000,166.732819,128.496185,-183.496185
1.984314,0.837158,-2.000000,110.198471,94.381676,-241.793900
0.960693,-0.180664,-2.000000,39.717556,83.000000,-236.114502
-0.216797,-0.777344,-2.000000,-52.885498,98.641220,-124.068703
-1.088135,-0.726318,-0.112305,-127.778625,146.770996,-28.625954
-1.436279,-0.206055,1.984314,-165.946564,166.267181,16.160305
-1.091064,0.527588,1.984314,-120.572517,137.755722,-4.938931
-0.323486,0.861572,1.984314,-0.007634,-0.007634,-0.007634
0.584717,0.697510,0.404053,21.396946,-48.030533,-68.877861
1.207764,0.176514,-2.000000,16.374046,-72.312981,-41.557251
0.953857,-0.629639,-2.000000,-35.274811,-32.244274,-0.816794
0.036377,-1.207764,-2.000000,-77.839691,39.847328,26.786259
-1.241943,-1.577148,-0.842773,-93.244278,107.786263,67.541985
-2.000000,-1.239990,1.984314,-77.114502,111.320610,110.145035
-2.000000,-0.523193,1.984314,-25.312977,83.000000,126.664124
-1.567871,0.162598,1.984314,10.320611,44.717556,139.664124
-0.986084,0.379150,1.228027,5.732824,-2.076336,160.167938
-0.478027,0.313477,-1.448730,13.732824,-99.526718,191.618317
-0.089355,0.073242,-2.000000,-10.519084,-243.351151,204.083969
0.323242,0.028564,-2.000000,-32.267174,-250.137405,225.122131
1.219727,0.948730,-1.436523,-50.618320,-250.137405,248.175568
1.984314,1.799316,1.526367,-177.022903,-250.137405,248.175568
1.984314,0.750732,1.984314,-250.137405,-250.137405,248.175568
1.984314,-2.000000,0.147461,-156.954193,108.274811,81.786263
1.984314,-0.938965,1.150635,-26.549618,248.175568,-224.931305
0.871826,0.034180,1.984314,85.290077,248.175568,-250.137405
-0.933105,0.644531,1.984314,142.488556,248.175568,-250.137405
-1.927734,1.173828,1.984314,192.190842,248.175568,-119.709923
-0.567627,1.984314,-0.217529,58.206108,-169.007629,25.862595
1.731201,1.497559,-1.820801,-44.312977,-250.137405,66.007637
1.984314,0.248779,-2.000000,-83.427483,-250.137405,31.473282
1.984314,-0.807861,-2.000000,-52.931297,-168.938934,-18.099237
1.984314,-1.071777,-0.507324,57.572517,67.984734,-81.335876
1.401367,-0.547363,1.781494,155.328247,239.473282,-131.152664
0.453613,0.282471,1.984314,217.984726,248.175568,-138.160309
0.223389,1.069336,1.984314,217.351151,187.671753,-143.549622
0.688721,1.690918,1.984314,176.244278,112.007637,-166.374039
1.257568,1.810303,0.248047,113.213737,29.419847,-232.259537
1.530762,1.284180,-2.000000,40.419846,17.000000,-173.183212
1.410400,0.625244,-2.000000,-70.122139,74.022903,-91.969467
0.634033,-0.334473,-2.000000,-166.381683,146.900757,-33.656490
-0.424316,-0.953613,-1.221924,-196.053436,184.450378,-14.290076
-1.156250,-0.826416,1.766602,-136.106873,159.519089,-42.946564
-1.354736,-0.285400,1.984314,-66.847328,98.847328,-77.938934
-0.889648,0.247803,1.984314,8.007633,20.320610,-43.648853
0.056885,0.490967,0.802490,10.145039,-28.526718,18.625954
0.710205,0.248291,-2.000000,-29.961832,-28.992367,38.984734
0.587158,-0.334961,-2.000000,-60.038166,13.129771,49.190838
-0.112549,-1.072266,-2.000000,-63.984734,53.931297,62.679390
-1.049072,-1.475830,-2.000000,-29.702290,76.679390,88.969467
-1.896729,-1.529785,0.298096,0.038168,98.534348,128.038162
-2.000000,-1.125000,1.984314,-7.076336,121.442749,180.687027
-2.000000,-0.243164,1.984314,-33.458015,60.297710,222.801529
-2.000000,0.595703,1.984314,-44.740459,-101.335876,232.717560
-0.765869,1.361816,0.315430,-62.984734,-250.137405,222.694656
1.834229,1.886475,-1.239014,-51.450382,-250.137405,248.175568
1.984314,1.984314,-1.281006,-73.916031,-250.137405,248.175568
1.984314,0.816162,-2.000000,-250.137405,-250.137405,248.175568
1.984314,-2.000000,-2.000000,-247.557251,248.175568,-23.114504
1.984314,-1.423340,-1.613281,-138.465652,248.175568,-250.137405
0.453369,-1.067139,1.678223,41.755726,248.175568,-250.137405
-1.627197,-0.561035,1.984314,211.885498,248.175568,-250.137405
-2.000000,0.684082,1.984314,245.221375,248.175568,-103.412216
-2.000000,1.819580,1.984314,111.167938,-67.946564,35.358780
0.067627,1.984314,1.984314,75.534348,-250.137405,50.167938
1.984314,1.451660,1.411133,47.007633,-250.137405,16.503817
1.984314,0.708984,-0.758301,55.190838,-250.137405,-43.244274
1.984314,0.093018,-2.000000,91.679390,-94.473282,-114.030533
1.984314,-0.279297,-2.000000,137.679382,84.374046,-146.022903
1.984314,-0.227295,-2.000000,161.167938,177.603058,-150.763351
0.819824,-0.273438,-0.158447,182.916031,248.175568,-165.381683
-0.344727,-0.002686,1.944824,155.229004,248.175568,-211.526718
-0.958496,0.452881,1.984314,125.923668,238.412216,-154.580154
-0.653076,1.451904,1.984314,54.847328,171.496185,-95.648857
0.207031,1.863770,1.984314,-34.916031,84.572517,-58.648853
1.125488,1.559570,-0.339355,-114.145035,3.381679,-68.167938
1.547852,0.573242,-2.000000,-141.022903,-27.625954,-101.992363
1.155273,-0.689697,-2.000000,-159.427475,-6.068702,-118.977097
0.089355,-1.505859,-2.000000,-144.480911,45.580154,-102.335876
-1.003906,-1.428467,-0.680908,-93.656487,95.190842,-48.587788
-1.584473,-0.823486,1.984314,-43.656490,117.671753,7.946565
-1.385498,0.059326,1.984314,-14.832061,106.145035,31.862595
-0.713379,0.513184,1.984314,15.335877,59.610687,41.900764
0.068115,0.499756,0.696045,15.809160,15.877863,57.465649
0.533936,0.146729,-1.963623,3.442748,-39.862595,68.160309
0.525879,-0.403320,-2.000000,-8.862596,-85.908394,81.572517
0.143311,-1.019775,-2.000000,-46.061069,-107.076332,106.854965
-0.802734,-1.603271,-2.000000,-117.480919,-37.213741,165.106873
-1.904541,-1.680176,-0.687988,-77.160309,47.366413,226.083969
-2.000000,-0.970459,1.412354,-66.229004,49.709923,234.671753
-2.000000,0.141602,1.984314,-80.229004,-64.290077,248.175568
-1.423340,1.712402,1.984314,-80.328247,-250.137405,248.175568
1.984314,1.984314,1.984314,-59.503819,-250.137405,248.175568
1.984314,1.984314,1.807373,-132.106873,-250.137405,248.175568
1.984314,-0.336670,0.482422,-211.740463,-250.137405,134.877869
1.984314,-1.446777,-2.000000,-87.587784,248.175568,-250.137405
1.984314,-0.604004,-2.000000,-1.717557,248.175568,-250.137405
0.507080,-1.284424,-2.000000,111.122139,248.175568,-250.137405
-2.000000,-0.799316,-1.836182,187.862595,248.175568,-197.870224
-2.000000,0.070068,-0.244141,26.564886,4.221374,8.694656
-1.514648,0.506104,1.984314,-25.557251,-239.862595,77.015266
0.369629,0.851074,1.984314,-10.916031,-250.137405,52.190838
1.980225,1.032227,1.984314,39.183205,-208.068695,-25.137405
1.984314,-0.472412,1.984314,117.732826,-10.458015,-133.877869
1.706543,0.176270,1.984314,183.816788,204.679382,-204.847336
1.259033,1.086426,1.984314,232.045807,248.175568,-234.656494
1.166748,1.673828,1.984314,247.213745,246.610687,-250.137405
1.083984,1.974365,0.383301,189.000000,189.534348,-250.137405
0.845947,1.726318,-2.000000,71.412216,135.396942,-247.419846
0.602783,1.114014,-2.000000,-100.305344,129.396942,-114.160309
0.302734,-0.060303,-2.000000,-248.572525,143.419846,-15.717557
-0.365234,-1.247803,-2.000000,-250.137405,130.435120,-3.442748
-1.080322,-1.724365,-0.885498,-171.221375,87.320610,-34.488548
-1.618408,-1.437744,1.731201,-79.343513,30.549618,-35.801525
-1.506836,-0.630371,1.984314,4.702290,4.259542,19.954199
-0.746338,0.384277,1.984314,29.496183,-18.839695,38.717556
0.028809,0.643066,1.858154,16.290077,-50.931297,25.221375
0.565918,0.425049,-1.006348,-17.854961,-67.648857,21.961832
0.683350,-0.066650,-2.000000,-69.793892,-58.267174,48.725189
0.363037,-0.847900,-2.000000,-91.335876,-29.847328,98.152672
-0.192871,-1.257324,-2.000000,-120.847328,-9.381680,154.893127
-0.988037,-1.580811,-1.619629,-104.809158,35.190838,185.656494
-1.908936,-1.658447,0.916992,-59.931297,64.229004,205.419846
-2.000000,-0.901611,1.984314,-23.335878,23.778625,223.656494
-2.000000,0.480713,1.984314,43.587788,-106.305344,246.305344
-0.949707,1.984314,1.984314,34.229008,-250.137405,248.175568
1.984314,1.984314,1.984314,-37.732826,-250.137405,248.175568
1.984314,1.984314,-0.163574,-148.702286,-250.137405,248.175568
1.984314,-0.271240,-2.000000,-250.137405,-250.137405,248.175568
1.984314,-2.000000,-2.000000,-160.351151,248.175568,-160.870224
1.984314,-0.873779,-2.000000,-59.847328,248.175568,-250.137405
0.244141,-1.388184,-0.705811,63.488548,248.175568,-250.137405
-2.000000,-0.990967,0.982422,140.549622,248.175568,-202.862595
-2.000000,0.173096,1.984314,100.389313,188.442749,8.328244
-1.909668,1.142578,1.984314,53.893131,-182.320618,79.129768
0.337402,1.537109,1.984314,49.885498,-250.137405,48.122139
1.984314,1.287598,1.984314,47.236641,-250.137405,-7.152672
1.984314,1.129639,1.024902,83.114502,-250.137405,-74.877861
1.984314,0.812500,-1.432373,94.679390,-39.885498,-145.145035
1.984314,0.348877,-2.000000,99.526718,170.312973,-175.335876
1.984314,0.001221,-2.000000,108.725189,248.175568,-178.610687
0.777100,-0.353516,-2.000000,106.045799,248.175568,-163.801529
-0.434082,0.008057,-0.008789,97.793892,248.175568,-205.488556
-1.521973,0.335693,1.984314,46.335876,243.282440,-181.404587
-1.432617,1.160645,1.984314,-22.244274,171.412216,-72.312981
-0.506836,1.764160,1.984314,-95.068703,70.374046,-46.519085
0.549805,1.281006,0.515137,-108.877861,-33.229008,-77.007637
1.163330,0.394043,-1.884521,-116.603050,-85.450378,-105.641220
1.037842,-0.607422,-2.000000,-115.022903,-54.335876,-60.641220
0.476807,-1.063232,-2.000000,-124.564888,36.839695,9.633588
-0.410889,-1.035645,-1.194092,-113.832062,122.969467,21.534351
-1.270264,-0.904785,1.327393,-79.122139,155.137405,6.702290
-1.614990,-0.507812,1.984314,-33.167938,135.984726,12.717557
-1.302490,-0.037354,1.984314,7.770992,87.961830,45.854961
-0.584717,0.167725,1.745850,32.106869,-0.282443,76.977097
0.183838,0.242920,-0.812012,46.534351,-96.778625,90.465652
0.607422,0.019287,-2.000000,10.732824,-146.145035,96.679390
0.243896,-0.645020,-2.000000,-69.786263,-110.358780,128.122131
-0.667969,-1.277588,-2.000000,-113.900764,-69.145035,183.618317
-1.579590,-1.604736,-2.000000,-78.908394,-71.435112,228.473282
-1.938965,-0.973389,-0.161377,-81.091606,-151.099243,241.160309
-1.416016,0.452881,1.984314,-46.083969,-250.137405,248.175568
0.970703,1.984314,1.984314,-31.870230,-250.137405,248.175568
1.984314,1.984314,1.984314,-95.969467,-250.137405,248.175568
1.984314,0.529053,1.984314,-219.358780,-250.137405,248.175568
1.984314,-0.479980,0.203857,-58.916031,248.175568,-95.572517
1.984314,0.897217,-2.000000,33.221375,248.175568,-250.137405
1.984314,0.203613,-2.000000,105.755722,248.175568,-250.137405
-0.086670,-0.572266,-2.000000,94.328247,248.175568,-250.137405
-1.555664,-0.432861,-2.000000,60.137405,94.572517,-42.419846
-1.285156,-0.007080,-0.836182,-31.450382,-196.755722,60.458015
-0.194580,0.129150,1.984314,-51.595421,-250.137405,56.114502
0.916016,0.161133,1.984314,-26.068703,-238.740463,25.137405
1.984314,0.635986,1.984314,47.076336,-91.198471,-26.900763
1.984314,1.097656,1.984314,135.480911,92.770996,-103.534348
1.984314,1.550049,1.609863,203.000000,213.053436,-151.633591
1.984314,1.538330,-1.215088,231.465652,219.305344,-181.396942
1.984314,0.936035,-2.000000,204.053436,170.900757,-193.526718
1.317139,0.234375,-2.000000,121.709923,109.198471,-243.297714
-0.076172,-0.462646,-2.000000,11.229008,92.854965,-152.236649
-0.943848,-0.322754,-0.884033,-125.022903,128.412216,-46.267174
-1.375732,-0.069336,1.697266,-200.877869,147.030533,-27.755726
-1.202881,0.225830,1.984314,-173.923660,142.984726,-48.526718
-1.541504,-1.193359,1.634277,-128.679382,114.435112,-59.488548
-1.732910,-0.419434,1.984314,-39.259541,54.458015,10.167939
-0.929687,0.671875,1.984314,14.213740,-30.923664,38.664124
0.172119,1.098877,1.686035,10.244275,-97.603050,2.030534
0.918457,0.775146,-1.460449,-36.450382,-93.938934,-29.847328
0.902100,-0.152832,-2.000000,-86.099236,-21.480917,0.053435
0.395752,-0.977051,-2.000000,-79.717560,49.961834,60.007633
-0.383789,-1.444092,-2.000000,-31.274809,79.870232,100.549622
-1.026123,-1.389893,-0.787354,26.687023,45.816795,112.908394
-1.512451,-1.237305,1.227539,42.030533,-3.992366,110.946564
-1.837402,-0.860352,1.984314,2.755725,-7.083970,152.435120
-1.821045,-0.200195,1.984314,13.152672,-38.152672,187.893127
-1.562256,0.593750,1.984314,16.908398,-112.709923,196.480911
-0.758545,1.585693,0.986572,17.458015,-245.229004,188.702286
0.853760,1.984314,-0.413574,3.526718,-250.137405,224.381683
1.984314,1.984314,-1.548584,-76.259544,-250.137405,248.175568
1.984314,1.376953,-1.652588,-188.488556,-250.137405,248.175568
1.984314,-1.026855,-0.136230,-225.267181,-250.137405,206.297714
1.984314,-2.000000,-1.866455,-103.152672,248.175568,-192.526718
1.721680,-1.123047,1.734375,12.129771,248.175568,-250.137405
-1.163818,-0.622559,1.984314,166.160309,248.175568,-250.137405
-2.000000,0.671143,1.984314,230.145035,248.175568,-198.473282
-2.000000,1.828857,1.984314,112.251907,-46.229008,-3.221374
-0.167480,1.984314,1.984314,45.618320,-250.137405,69.587784
1.984314,1.688232,1.363525,5.992366,-250.137405,49.694656
1.984314,0.986328,-0.629639,-24.961832,-250.137405,-22.083969
1.984314,0.247070,-2.000000,22.488550,-93.083969,-116.641220
1.984314,-0.214600,-2.000000,77.412216,145.137405,-172.931305
1.984314,-0.265381,-2.000000,129.083969,248.175568,-185.900757
0.841797,-0.205566,-1.332275,158.908401,248.175568,-186.473282
-0.407471,0.017822,0.618408,124.488548,248.175568,-188.297714
-1.290283,0.229004,1.984314,65.129768,248.175568,-199.564880
-1.464355,0.776855,1.984314,-6.900764,180.854965,-140.145035
-0.872803,1.344238,1.984314,-72.152672,73.839691,-73.351143
0.188232,1.368408,1.083496,-108.793892,-21.694656,-46.381680
1.118164,0.761475,-1.143066,-112.832062,-59.816795,-51.854961
1.401123,-0.126221,-2.000000,-89.007637,-42.587788,-91.351143
0.833740,-1.161377,-2.000000,-89.274811,15.763359,-66.694656
-0.131348,-1.629150,-2.000000,-93.427483,114.206108,12.503817
-1.113037,-1.506836,-0.960449,-89.656487,169.312973,50.816795
-2.000000,-1.274902,1.884521,-72.877861,160.000000,57.213741
-2.000000,-0.766113,1.984314,-13.557252,73.648857,76.572517
-1.660400,-0.307129,1.984314,3.251908,-44.977100,106.106873
-0.682129,0.136230,1.981201,24.526718,-132.709930,121.137405
0.077148,0.398926,-0.238770,51.282444,-160.946564,124.748093
0.428955,0.376953,-2.000000,38.137405,-161.358780,132.358780
0.104736,0.110352,-2.000000,-30.099237,-143.572525,180.503815
-0.366455,0.100586,-2.000000,-91.870232,-168.396942,248.175568
0.108643,0.748535,-1.694336,-149.519089,-250.137405,248.175568
1.984314,1.593262,1.984314,-199.870224,-250.137405,248.175568
1.984314,0.418213,1.984314,-235.984726,-250.137405,248.175568
1.984314,-1.868896,1.984314,-197.961838,-250.137405,151.038162
1.984314,0.327148,1.984314,-6.236641,248.175568,-250.137405
1.984314,1.481445,1.984314,117.778625,248.175568,-250.137405
-0.455078,1.128906,1.515869,236.633591,248.175568,-250.137405
-2.000000,1.516113,-1.805908,189.587784,158.007629,-105.679390
-0.655762,1.445313,-2.000000,22.961832,-250.137405,62.992367
1.495850,0.636719,-2.000000,-41.229008,-250.137405,83.549622
1.984314,-0.534180,-2.000000,-60.389313,-250.137405,40.893131
1.984314,-1.001465,-0.383545,-19.427481,-250.137405,-10.816793
1.984314,-0.862305,1.404297,48.687023,1.580153,-90.213737
1.375488,-0.279541,1.984314,122.358780,185.854965,-130.335876
0.637207,0.684814,1.984314,189.442749,248.175568,-139.572525
0.460937,1.486084,1.984314,197.343506,222.580154,-123.770996
0.828125,1.984314,1.984314,151.908401,149.427475,-119.839691
1.329590,1.984314,0.066162,102.114502,56.748093,-128.297714
1.868896,1.604248,-2.000000,67.854965,-36.725189,-187.366409
1.567871,0.494629,-2.000000,-4.251908,-85.679390,-180.190842
0.999023,-0.394043,-2.000000,-107.305344,-12.656488,-52.213741
0.329590,-0.598389,-2.000000,-175.312973,93.595421,-12.916031
-0.547363,-0.735840,0.092529,-178.847336,146.190842,-66.610687
-1.358643,-0.505127,1.984314,-189.824432,183.732819,-105.198471
-1.668213,-0.281982,1.984314,-144.832062,187.778625,-22.015266
-1.112793,0.102295,1.984314,-74.465652,150.351151,87.099236
-0.182373,0.369873,0.883301,-4.045802,61.564884,86.541985
0.450195,0.237305,-1.732666,34.992367,-40.603054,38.145039
0.613037,-0.325684,-2.000000,34.961834,-98.435112,19.122137
0.307617,-1.135010,-2.000000,21.572519,-102.984734,46.015266
-0.383057,-1.607910,-2.000000,10.977099,-69.595421,89.534348
-1.289795,-1.720947,-2.000000,8.038168,-16.435114,130.603058
-0.452148,-1.012695,-2.000000,-0.305344,19.328245,168.770996
-1.613525,-1.648438,-2.000000,-58.572517,39.038166,227.900757
-2.000000,-1.734131,-1.099854,-71.847328,-14.916031,248.175568
-2.000000,-0.425781,1.943359,-45.259541,-250.137405,248.175568
-0.453369,1.345459,1.984314,60.969467,-250.137405,248.175568
1.984314,1.984314,1.984314,50.335876,-250.137405,248.175568
1.984314,1.984314,1.984314,-238.977097,-250.137405,248.175568
1.984314,-2.000000,-2.000000,-250.137405,248.175568,-42.419846
1.984314,-0.034180,-2.000000,-209.473282,248.175568,-250.137405
1.984314,-0.362793,-2.000000,110.870232,248.175568,-250.137405
0.743652,0.770752,-2.000000,217.969467,248.175568,-250.137405
-1.070557,1.808838,-2.000000,168.106873,248.175568,-134.496185
-1.041992,0.722412,-2.000000,-57.557251,-49.488548,52.610687
-0.068848,-0.208008,-0.202881,-89.305344,-231.396942,145.007629
1.058838,-0.405762,1.984314,-66.175575,-250.137405,115.145035
1.871826,-0.421631,1.984314,-10.786260,-238.488556,21.458015
1.984314,-0.150879,1.984314,48.786259,-82.343513,-75.320610
1.984314,0.196777,1.984314,121.580154,81.916031,-151.236649
1.984314,0.844238,1.984314,197.045807,186.984726,-191.061066
1.984314,1.562256,1.017334,233.625961,195.427475,-215.465652
1.984314,1.808594,-1.701416,184.236649,146.206100,-226.389313
1.944824,1.358154,-2.000000,91.091606,130.793900,-211.541992
1.302734,0.576904,-2.000000,0.648855,122.122139,-250.137405
0.143311,-0.384521,-2.000000,-87.664124,127.297707,-185.824432
-0.791992,-0.692627,-1.322998,-155.305344,165.564880,-68.106873
-1.245605,-0.435303,1.404053,-178.030533,172.404587,-9.320611
-1.204102,0.021729,1.984314,-153.045807,130.534348,-42.229008
-0.853760,0.398438,1.984314,-118.931297,60.969467,-103.206108
-0.359375,0.277588,1.844971,-61.587788,-10.282443,-75.618324
0.418945,0.144043,-0.878174,-52.923664,-51.381680,19.076336
0.946289,-0.098877,-2.000000,-74.679390,-42.137405,47.664124
0.625000,-0.675293,-2.000000,-96.274811,10.816793,25.648855
-0.358643,-1.568848,-2.000000,-93.832062,75.122139,28.114504
-1.372070,-2.000000,-1.217773,-59.427483,97.366409,80.229004
-1.818848,-1.515381,1.216064,17.419847,62.946564,111.351143
-2.000000,-0.856201,1.984314,44.564884,39.412212,99.381676
-2.000000,-0.292969,1.984314,3.709924,28.137405,141.015274
-2.000000,0.352539,1.984314,-0.564885,-24.244274,188.809158
-1.435791,0.982422,1.345459,-25.366413,-151.099243,229.618317
-0.260742,1.089111,-0.866211,-48.977100,-250.137405,248.175568
1.919678,1.609619,-1.505859,-63.061069,-250.137405,248.175568
1.984314,1.984314,-0.848633,-88.625954,-250.137405,248.175568
1.984314,0.102051,-2.000000,-204.778625,-250.137405,248.175568
1.984314,-2.000000,-1.644775,-225.244278,248.175568,-54.175571
1.984314,-1.372314,-1.391846,-123.877861,248.175568,-250.137405
-0.077148,-0.888672,1.932129,83.854965,248.175568,-250.137405
-2.000000,-0.304932,1.984314,248.175568,248.175568,-250.137405
-2.000000,1.639404,1.984314,225.938934,248.175568,-44.557251
-2.000000,1.984314,1.984314,35.877861,-250.137405,65.633591
0.813965,1.984314,1.984314,-7.893130,-250.137405,73.290077
1.984314,1.467285,1.396729,-18.129770,-250.137405,22.557251
1.984314,0.608398,-0.553467,-2.755725,-250.137405,-55.534351
1.984314,-0.191406,-2.000000,50.961834,-76.725189,-138.702286
1.984314,-0.800049,-2.000000,89.083969,125.465652,-177.541992
1.984314,-0.839600,-2.000000,133.557251,248.175568,-194.015274
0.587891,-0.573975,-0.607666,174.618317,248.175568,-179.282440
-0.363281,0.082275,1.687500,166.694656,247.877869,-155.396942
-0.647949,0.853271,1.984314,144.000000,246.282440,-157.702286
-0.471680,1.625977,1.984314,104.885498,178.770996,-206.847336
0.034424,1.835693,1.952637,32.335876,88.007637,-153.984726
0.789551,1.578857,-0.446777,-83.465652,48.061069,-68.832062
1.228027,0.580811,-2.000000,-164.259537,8.694656,-53.931297
0.859131,-0.675537,-2.000000,-223.572525,-2.664122,-77.320610
-0.221924,-1.707520,-2.000000,-207.213745,32.412212,-74.511452
-1.378906,-1.863281,-1.443604,-167.000000,69.030533,-22.000000
-2.000000,-1.642090,1.225586,-125.083969,108.427483,84.038170
-2.000000,-1.107666,1.984314,-104.862595,120.183205,129.656494
-1.886475,-0.706543,1.984314,-83.251907,87.969467,131.404587
-1.499268,-0.311035,1.635742,-14.595420,37.480915,138.923660
-1.215332,0.069092,-0.633545,41.748093,-25.099237,169.526718
-1.088623,-0.041260,-2.000000,64.480919,-91.335876,216.328247
-1.038818,-0.006836,-2.000000,22.664122,-233.732819,248.175568
-0.533203,0.194092,-2.000000,-41.725189,-250.137405,248.175568
0.845215,1.108887,-1.025391,-118.259544,-250.137405,248.175568
1.984314,1.984314,1.984314,-62.893131,-250.137405,248.175568
1.984314,-0.343262,1.984314,-250.137405,-250.137405,248.175568
1.984314,-2.000000,-0.439941,-250.137405,248.175568,-51.000000
1.984314,0.169678,1.984314,-73.610687,248.175568,-250.137405
-0.338867,0.076416,1.984314,248.175568,248.175568,-250.137405
-2.000000,1.338867,1.984314,248.175568,248.175568,-153.557251
-2.000000,1.605225,1.984314,99.167938,-76.465652,58.916031
-1.431396,1.550781,1.984314,-32.702290,-250.137405,100.946564
0.999268,1.385498,1.984314,-57.557251,-250.137405,81.587784
1.984314,1.054199,1.984314,-23.068703,-250.137405,40.129772
1.984314,0.845703,1.342529,25.374046,-250.137405,-69.694656
1.984314,0.474854,-0.842773,70.633591,9.862596,-174.717560
1.984314,0.251709,-2.000000,128.755722,218.389313,-213.847336
1.984314,0.109131,-2.000000,155.465652,248.175568,-216.679382
1.343994,-0.030762,-2.000000,132.267181,248.175568,-197.068695
0.073730,-0.022705,-1.227783,77.045799,248.175568,-159.206100
-0.847656,0.303223,1.073730,11.114504,248.175568,-122.809158
-1.087158,0.857422,1.984314,-14.946565,167.374039,-107.511452
-0.651611,1.313965,1.984314,-50.045803,70.000000,-106.832062
0.194336,1.157471,1.880371,-74.541985,22.839695,-110.725189
0.797363,0.795898,-0.539795,-87.992363,2.229008,-184.572525
0.759033,-0.030762,-2.000000,-87.595421,6.206107,-122.969467
0.540283,-0.540527,-2.000000,-98.992363,50.351147,-14.206107
0.072021,-0.930908,-2.000000,-110.015266,113.969467,56.442749
-0.712402,-1.136475,-1.922607,-115.809158,151.580154,53.175571
-1.589844,-1.384766,0.767090,-84.534348,161.603058,46.984734
-2.000000,-1.234131,1.984314,-44.625954,126.167938,65.725189
-1.990967,-0.642578,1.984314,21.961832,17.938931,85.725189
-1.361328,-0.045654,1.984314,57.809162,-103.213737,90.687019
-0.600098,0.295898,0.986328,55.022900,-157.732819,100.335876
-0.170898,0.335938,-1.225830,47.725189,-143.519089,136.610687
-0.269287,0.077637,-2.000000,35.030533,-111.526718,192.351151
-0.391357,0.117432,-2.000000,-34.160305,-158.076340,248.175568
-0.211914,0.431152,-2.000000,-92.816795,-250.137405,248.175568
1.165039,1.270996,-0.830078,-166.320618,-250.137405,248.175568
1.984314,1.801025,1.984314,-163.427475,-250.137405,248.175568
1.984314,-0.364014,1.984314,-250.137405,-250.137405,248.175568
1.984314,-2.000000,1.984314,-183.557251,208.801529,-3.709924
1.984314,0.163574,1.984314,5.465649,248.175568,-250.137405
0.879639,1.468750,1.984314,176.267181,248.175568,-250.137405
-1.732178,1.488281,1.984314,248.175568,248.175568,-250.137405
-2.000000,1.676758,0.568848,115.641220,113.595421,-24.984734
-0.458496,1.761475,0.286377,-31.534351,-250.137405,74.236641
1.984314,0.832520,-0.104004,-67.030533,-250.137405,59.305344
1.984314,-0.259277,-1.586426,-10.328244,-250.137405,27.297710
1.984314,-0.628418,-2.000000,63.335876,-250.137405,-61.099236
1.984314,-0.171143,-2.000000,146.633591,-15.519084,-208.396942
1.984314,-0.032959,-2.000000,180.076340,248.175568,-250.137405
1.263428,-0.256836,-0.890625,148.435120,248.175568,-207.351151
-0.474609,-0.201172,0.441406,104.396950,248.175568,-112.229004
-1.550781,0.147461,1.894531,43.587788,248.175568,-72.251907
-1.723389,0.845215,1.984314,-5.022901,180.244278,-154.129776
-1.552734,0.854004,1.984314,-81.221375,32.068703,-85.305344
-0.353516,1.116943,1.846191,-136.343506,-39.694656,-14.671756
0.586182,0.968750,0.074707,-173.488556,-88.137405,-31.862595
0.987793,0.492920,-2.000000,-177.793900,-82.740456,-2.381679
0.948730,0.119385,-2.000000,-132.526718,-21.053434,16.404581
0.437012,-0.693604,-2.000000,-104.473282,14.801527,4.175572
-0.587646,-1.617920,-2.000000,-127.648857,67.206108,18.374046
-1.643799,-2.000000,-1.551025,-104.511452,119.679390,66.106873
-2.000000,-2.000000,0.786133,-38.541985,122.236641,108.122139
-2.000000,-1.235840,1.984314,16.748091,43.206108,115.748093
-2.000000,-0.381592,1.984314,29.755726,-67.847328,89.809158
-1.299072,-0.040771,1.984314,28.824427,-148.938934,79.000000
-0.478027,-0.262695,1.804199,30.251909,-174.129776,121.664124
0.215332,-0.061768,-0.276611,76.099236,-177.145035,188.511444
0.708496,0.745361,-1.904053,135.221375,-219.580154,239.656494
1.592529,1.984314,-2.000000,91.198471,-250.137405,248.175568
1.984314,1.984314,-2.000000,-87.549622,-250.137405,248.175568
1.984314,1.083252,-1.563477,-250.137405,-250.137405,248.175568
1.984314,-1.525879,1.984314,-250.137405,30.603054,71.183205
1.984314,-2.000000,1.008057,-150.870224,248.175568,-128.679382
1.394775,0.294678,1.984314,35.404579,248.175568,-250.137405
-0.568848,0.929687,1.984314,175.847336,248.175568,-250.137405
-2.000000,1.296875,1.984314,238.412216,248.175568,-128.770996
-2.000000,1.979248,1.984314,63.816795,9.549619,84.366409
0.458008,1.973389,1.507568,-16.152672,-250.137405,116.702293
1.984314,0.729980,-0.418457,-46.503819,-250.137405,49.534351
1.984314,-0.589844,-1.969971,6.839694,-250.137405,-15.389313
1.984314,-0.900391,-2.000000,107.290077,-250.137405,-126.702293
1.984314,-0.742920,-2.000000,157.458008,103.335876,-213.236649
1.984314,-0.385010,-0.905518,197.534348,248.175568,-232.580154
0.684814,-0.101563,0.714355,181.198471,248.175568,-201.083969
-0.652100,0.255371,1.984314,89.610687,248.175568,-150.435120
-1.204346,0.735840,1.984314,-13.015267,248.175568,-100.709923
-0.829590,1.263916,1.984314,-59.465649,173.763351,-158.183212
-0.244385,1.060059,1.763916,-101.984734,56.061069,-101.633591
-1.038086,0.218262,1.984314,-128.854965,21.465649,-30.068703
-0.116455,0.910889,1.984314,-107.389313,-18.038168,-58.335876
0.612061,0.973633,1.326416,-119.412216,-40.160305,-91.755722
1.166260,0.622559,-1.280762,-117.755722,1.816794,-27.519083
1.347656,0.092041,-2.000000,-126.557251,80.732826,-5.488550
0.771240,-0.828857,-2.000000,-114.801529,163.488556,-10.061069
-0.374756,-1.478271,-2.000000,-75.877861,222.480911,2.190840
-1.596191,-1.833496,-0.925537,-27.862595,223.908401,40.099236
-2.000000,-1.629150,1.729736,2.572519,150.885498,78.145035
-2.000000,-0.891357,1.984314,52.091602,-0.725191,88.671753
-1.686035,-0.166260,1.984314,76.564888,-130.351151,81.664124
-0.800049,0.190430,1.514893,75.694656,-188.603058,81.381676
-0.402100,0.286377,-0.737793,77.961830,-141.419846,118.374046
-0.461182,0.351807,-2.000000,47.190838,-102.564888,177.778625
-0.554199,0.296143,-2.000000,-19.206106,-163.603058,238.320618
-0.054932,0.591309,-2.000000,-33.885498,-250.137405,248.175568
1.418701,0.994629,-0.042969,-66.045799,-250.137405,248.175568
1.984314,1.704590,1.984314,-109.908394,-250.137405,248.175568
1.984314,-0.840576,1.984314,-244.083969,-250.137405,248.175568
1.984314,-2.000000,1.865723,-185.816788,248.175568,-60.526718
1.984314,0.713623,1.984314,-7.213740,248.175568,-250.137405
0.734863,0.775879,1.984314,210.541992,248.175568,-250.137405
-0.646484,1.268799,1.984314,248.175568,248.175568,-250.137405
-1.301270,1.984314,-0.480957,248.175568,200.854965,-79.274811
-0.066406,1.984314,-2.000000,55.244274,-250.137405,18.801527
1.805908,1.108154,-2.000000,-82.229004,-250.137405,34.587788
1.984314,-0.452881,-2.000000,-115.748093,-250.137405,-9.770992
1.984314,-1.265869,-1.639893,-24.961832,-238.000000,-52.709923
1.984314,-0.983398,-0.377441,70.625954,47.809162,-122.618324
1.984314,-0.447510,1.876465,158.969467,248.175568,-201.564880
0.671143,0.178467,1.984314,189.725189,248.175568,-206.832062
-0.084473,0.870117,1.984314,189.053436,248.175568,-199.961838
-0.611572,1.294922,1.984314,96.694656,248.175568,-205.839691
-0.429443,1.350586,0.308105,-27.000000,98.244278,-151.427475
0.123779,1.040283,-2.000000,-134.274811,-14.206107,-104.351143
0.473877,0.103516,-2.000000,-187.671753,-74.175575,-74.213737
0.359619,-0.723633,-2.000000,-234.519089,-80.801529,-58.938931
-0.174072,-1.514648,-2.000000,-194.442749,0.045802,35.473282
-0.747314,-1.729248,-0.645020,-131.213745,111.992363,86.748093
-1.437744,-1.463379,1.842285,-53.992367,184.152664,76.145035
-2.000000,-0.924316,1.984314,8.412213,169.458008,61.687023
-2.000000,-0.235352,1.984314,46.755726,70.229004,69.305344
-1.531494,0.415283,1.984314,61.030533,-46.473282,84.687019
-0.590088,0.719482,0.482178,68.473282,-158.854965,92.648857
0.248535,0.528564,-1.944824,47.580154,-224.854965,91.030533
0.442383,-0.145508,-2.000000,-2.396947,-220.702286,104.877861
-0.024658,-0.813232,-2.000000,-75.435112,-184.816788,157.984726
-0.495361,-0.699219,-2.000000,-74.725189,-184.007629,220.442749
-0.448730,0.342041,0.491455,-70.671753,-250.137405,248.175568
1.142822,1.713867,1.984314,-65.893127,-250.137405,248.175568
1.984314,1.641357,1.984314,-148.694656,-250.137405,248.175568
1.984314,-0.124512,1.984314,-120.160309,-250.137405,151.099243
1.984314,-0.071289,-0.287842,-78.854965,248.175568,-220.503815
1.984314,1.369385,0.315674,93.259544,248.175568,-250.137405
0.287842,1.129150,0.103760,248.175568,248.175568,-250.137405
-2.000000,1.182129,-2.000000,218.732819,248.175568,-73.458015
-1.029541,1.471191,-2.000000,-44.053436,-250.137405,129.511444
1.152100,0.633057,-2.000000,-118.725189,-250.137405,134.465652
1.984314,-0.659180,-1.458008,-156.969467,-250.137405,101.610687
1.984314,-1.266113,0.833008,-119.809158,-250.137405,30.580153
1.984314,-1.062012,1.984314,-7.748092,-20.404581,-103.725189
1.984314,-0.334961,1.984314,103.984734,248.175568,-177.992371
1.226318,0.541992,1.984314,222.030533,248.175568,-182.732819
0.907715,1.358887,1.984314,248.175568,248.175568,-158.473282
0.993164,1.984314,1.289551,225.786255,248.175568,-143.961838
1.223145,1.984314,-1.241699,117.007637,97.320610,-143.473282
1.518555,1.650879,-2.000000,-13.229008,-34.091602,-137.977097
1.532227,0.687256,-2.000000,-117.282440,-69.564888,-123.625954
1.210205,-0.197021,-2.000000,-158.328247,-23.038168,-137.885498
0.205811,-0.860107,-1.926514,-176.740463,48.969467,-193.770996
-0.896240,-1.156982,0.699219,-172.374039,141.015274,-128.305344
-1.468994,-0.930176,1.984314,-151.114502,243.687027,8.145039
-1.279053,-0.208984,1.984314,-80.580154,248.175568,56.610687
-0.833252,0.283203,1.984314,-3.694656,183.442749,42.519085
-0.229736,0.436279,0.233643,31.748091,49.603054,17.557251
0.255615,0.181152,-2.000000,33.992367,-53.381680,21.091602
0.314453,-0.576416,-2.000000,11.870229,-88.954201,38.748093
-0.126465,-1.491455,-2.000000,-19.022902,-81.557251,69.061066
-0.893066,-1.792480,-2.000000,-30.839695,-63.045803,93.534348
-1.739746,-1.714355,-0.976807,-50.625954,-36.068703,106.748093
-0.904785,-1.799316,-2.000000,-62.221375,-7.725191,152.900757
-1.962646,-2.000000,-1.891357,-33.916031,-0.618321,232.961838
-2.000000,-1.349609,1.082520,12.114504,-81.786263,248.175568
-2.000000,0.417969,1.984314,43.954197,-250.137405,248.175568
-0.166016,1.881104,1.984314,39.961834,-250.137405,248.175568
1.984314,1.984314,1.984314,-59.038166,-250.137405,248.175568
1.984314,1.956543,1.747803,-197.000000,-250.137405,248.175568
1.984314,-0.660400,-2.000000,-238.267181,248.175568,-163.893127
1.984314,-0.129639,-2.000000,-114.709923,247.786255,-250.137405
1.984314,-0.678955,-2.000000,14.587787,248.175568,-250.137405
1.096924,-0.650635,-2.000000,62.374046,248.175568,-250.137405
-1.047607,-0.373779,-2.000000,165.061066,248.175568,-192.534348
-1.783203,0.352295,-0.623291,128.152664,117.458015,-35.358780
-1.014404,0.653809,1.984314,57.946564,-102.122139,9.580153
0.115234,0.668213,1.984314,26.320610,-190.244278,-9.068703
1.292480,0.784912,1.984314,24.305344,-190.526718,-43.961834
1.984314,0.847412,1.984314,62.473282,-40.160305,-114.648857
1.984314,0.740967,1.415527,122.557251,133.419846,-174.351151
1.984314,0.769043,-1.387939,148.519089,192.763351,-177.977097
1.984314,0.769775,-2.000000,181.007629,243.396942,-229.618317
1.653809,0.387939,-2.000000,130.610687,248.175568,-227.389313
0.388428,-0.012451,-2.000000,48.778625,248.175568,-170.862595
-0.821777,-0.488770,-1.583984,-58.274811,248.175568,-109.160309
-1.740479,-0.756592,0.932373,-146.160309,248.175568,-87.137405
-1.994873,-0.619141,1.984314,-116.916031,171.000000,-52.664124
-1.575439,0.010498,1.984314,-59.679390,43.351147,-64.862595
-0.692383,0.270996,1.984314,-22.160305,-69.809158,-40.488548
0.259766,0.261719,-0.480225,-40.488548,-104.000000,6.198473
0.705811,0.041260,-2.000000,-79.900764,-58.893131,43.847328
0.367432,-0.586914,-2.000000,-116.106873,1.465649,67.442749
-0.389893,-1.238037,-2.000000,-118.900764,3.427481,89.381676
-1.210205,-1.542480,-2.000000,-104.389313,5.167939,117.175575
-1.946777,-1.657227,-0.509033,-73.778625,12.648855,159.129776
-2.000000,-1.406006,1.784424,-31.374046,3.977099,209.725189
-2.000000,-0.265869,1.984314,-6.885496,-54.129772,241.862595
-2.000000,0.971436,1.984314,9.954199,-191.015274,248.175568
-0.175293,1.984314,1.984314,-30.870230,-250.137405,248.175568
1.984314,1.984314,1.984314,-81.435112,-250.137405,248.175568
1.984314,1.785645,0.708496,-140.854965,-250.137405,248.175568
1.984314,-1.976563,-2.000000,-223.725189,-250.137405,105.610687
1.984314,-1.485596,-2.000000,-103.717560,248.175568,-250.137405
1.984314,-0.946289,-2.000000,55.824429,248.175568,-250.137405
-0.519531,-0.599121,-1.486816,232.396942,248.175568,-250.137405
-2.000000,-0.069336,-1.826416,114.595421,248.175568,-72.358780
-2.000000,-0.063721,1.125732,-62.824429,-191.908401,97.526718
-0.598145,0.460693,1.984314,-27.519083,-250.137405,132.900757
1.110840,0.677490,1.984314,-8.763359,-250.137405,36.618320
1.984314,0.726318,1.984314,34.580154,-250.137405,-52.503819
1.984314,0.894531,1.984314,118.664124,-50.122139,-132.961838
1.984314,0.947754,1.740234,198.526718,130.068695,-176.541992
1.984314,1.205811,-0.707520,248.175568,199.854965,-189.725189
1.984314,1.409668,-2.000000,246.312973,197.152664,-193.068695
1.968506,1.185547,-2.000000,129.702286,163.969467,-180.572525
0.994141,0.554443,-2.000000,-22.900763,130.801529,-153.496185
0.007324,0.011230,-2.000000,-151.328247,113.847328,-113.167938
-0.720215,-0.271729,-0.516357,-222.870224,117.748093,-78.236641
-0.837402,0.096680,1.984314,-184.106873,121.007637,-138.641220
-0.987305,0.078125,1.984314,-98.381676,92.679390,-140.312973
-0.483643,0.712402,1.984314,-47.839695,85.427483,-74.870232
0.282715,0.936768,1.872070,-31.595419,65.931297,-4.450382
1.009277,0.760010,-0.945557,-56.770992,25.786259,2.938931
1.116455,0.011230,-2.000000,-100.198471,-19.435114,-20.030535
0.603760,-0.918457,-2.000000,-135.748093,-28.648855,-18.129770
-0.292725,-1.588867,-2.000000,-150.839691,1.320611,22.450382
-1.264893,-2.000000,-1.986084,-115.664124,41.648853,72.412216
-1.887695,-1.752441,0.515137,-29.122137,25.251909,102.832062
-1.884277,-0.863037,1.984314,24.007633,-34.770992,95.862595
-1.748291,-0.258057,1.984314,16.839695,-23.076336,86.557251
-1.794678,-0.012695,1.984314,35.038166,11.343512,129.580154
-1.880127,0.047852,1.688965,88.091606,-45.587788,210.961838
-1.276855,0.589355,-0.325439,35.114502,-221.503815,248.175568
-0.025146,0.778320,-1.183838,74.389313,-250.137405,248.175568
1.984314,1.523682,-1.132080,93.618324,-250.137405,248.175568
1.984314,1.984314,-0.395996,18.709923,-250.137405,248.175568
1.984314,0.985107,-1.930908,-250.137405,-250.137405,248.175568
1.984314,-2.000000,0.749756,-250.137405,248.175568,24.068703
1.984314,-1.880371,0.038818,-118.198471,248.175568,-250.137405
0.733887,-0.333984,1.984314,102.389313,248.175568,-250.137405
-0.547852,0.721924,1.984314,220.358780,248.175568,-250.137405
-2.000000,1.239014,1.984314,213.694656,248.175568,-189.488556
-2.000000,0.314209,0.653320,115.877861,126.312981,-2.916031
-1.375732,0.886963,1.984314,60.122139,-194.137405,43.450382
0.183350,1.022949,1.984314,24.106871,-250.137405,-8.335877
1.550537,0.971436,1.984314,7.297710,-250.137405,-55.190838
1.984314,0.900146,1.984314,44.961834,-96.007637,-99.404579
1.984314,0.915039,1.558105,120.534348,80.946564,-152.328247
1.984314,1.117432,-0.869385,164.167938,234.603058,-177.122131
1.984314,1.102783,-2.000000,167.679382,248.175568,-166.137405
1.545166,0.773926,-2.000000,136.938934,248.175568,-153.091599
0.330566,0.110107,-2.000000,29.305344,248.175568,-166.129776
-0.680420,-0.549561,-2.000000,-78.259544,194.244278,-95.648857
-1.253662,-0.754639,-0.110107,-130.572525,157.442749,-43.427483
-1.354980,-0.432861,1.984314,-105.572517,90.816795,-49.633587
-1.127930,-0.025391,1.984314,-76.458015,26.305344,-46.725189
-0.507812,0.305908,1.984314,-79.534348,11.824428,2.900763
0.143311,0.314453,1.049561,-106.358780,23.091602,28.732824
0.322754,-0.111572,-1.439209,-142.633591,37.320610,28.778625
0.073242,-0.715088,-2.000000,-129.862595,38.351147,53.419846
-0.213867,-1.092285,-2.000000,-90.732826,-19.427481,84.832062
-0.509766,-1.433105,-2.000000,-60.816795,-46.045803,104.801529
-1.279297,-1.704834,-2.000000,-58.931297,-17.625954,123.442749
-2.000000,-1.638916,0.270752,-44.396946,45.534351,165.694656
-2.000000,-0.730957,1.984314,-27.557251,10.625955,220.152664
-2.000000,0.233887,1.984314,-50.137405,-199.351151,240.297714
-1.089355,1.083984,1.984314,14.503817,-250.137405,248.175568
1.984314,1.984314,1.984314,69.427483,-250.137405,248.175568
1.984314,1.984314,1.046387,-17.007633,-250.137405,248.175568
1.984314,-0.287842,-2.000000,-250.137405,-250.137405,232.122131
1.984314,-2.000000,-2.000000,-250.137405,248.175568,-206.045807
1.984314,-1.468750,-2.000000,-21.572519,248.175568,-250.137405
-0.233887,-1.236816,-1.818359,177.946564,248.175568,-250.137405
-2.000000,-0.608887,-2.000000,136.687027,248.175568,-86.603050
-2.000000,-0.025635,-0.304199,-59.381680,-212.694656,108.244278
-0.894531,0.380859,1.984314,-57.374046,-250.137405,131.435120
1.049072,0.574463,1.984314,-39.633587,-250.137405,75.305344
1.984314,0.688232,1.984314,-15.755725,-250.137405,-7.206107
1.984314,0.948730,1.984314,73.671753,-92.587784,-101.297707
1.984314,1.133301,1.984314,171.320618,131.389313,-173.129776
1.984314,1.359619,-0.741455,223.633591,209.000000,-192.923660
1.984314,1.344971,-2.000000,215.259537,194.603058,-186.053436
1.755127,0.939209,-2.000000,131.244278,145.122131,-172.541992
0.705811,0.276855,-2.000000,-14.389313,143.213745,-134.145035
-0.263672,-0.233154,-1.667236,-125.893127,139.511444,-85.610687
