ax,ay,az,gx,gy,gz
-0.326660,-0.394775,1.984314,-33.068703,87.114502,27.320610
-0.361084,-0.377686,1.984314,-29.229008,89.206108,28.748091
-0.362061,-0.312744,1.984314,-32.786259,88.702293,26.900763
-0.376221,-0.214844,1.984314,-33.213741,96.969467,22.961832
-0.388428,-0.176514,1.984314,-29.534351,99.801529,24.496183
-0.379639,-0.121094,1.984314,-26.366413,103.061066,22.374046
-0.365723,-0.068604,1.984314,-24.122137,104.045799,20.305344
-0.356934,-0.011475,1.984314,-22.022902,102.862595,18.160305
-0.351807,0.035645,1.984314,-18.862595,107.557251,17.351145
-0.359619,0.134033,1.984314,-14.473283,104.587784,15.229008
-0.347900,0.161865,1.984314,-15.580153,100.702293,17.519083
-0.322021,0.200684,1.984314,-12.641221,103.763359,18.221375
0.624756,-0.750977,-1.202148,-18.030535,97.961830,20.236641
0.600830,-0.750244,-1.068848,-16.351145,98.541985,19.748091
0.547119,-0.749268,-0.917236,-14.007633,103.709923,23.465649
0.482178,-0.754150,-0.814209,-12.297709,102.282440,25.000000
0.450195,-0.739502,-0.624268,-3.045802,105.053436,25.984734
0.401123,-0.745361,-0.549316,1.839695,106.458015,28.061069
0.387451,-0.741943,-0.458984,9.213740,108.694656,30.748091
0.391602,-0.763428,-0.277344,13.893129,115.290077,34.404579
0.354004,-0.784424,-0.049072,18.969465,121.931297,35.450382
0.289551,-0.780762,0.083984,22.213741,129.427475,36.809162
0.227051,-0.799805,0.193359,3.290076,125.702293,39.893131
0.176025,-0.848389,0.424561,-5.396946,116.389313,39.091602
0.140381,-0.992249,-0.000061,-0.007634,-0.007634,-0.007634
0.090088,-0.755615,0.903809,9.106871,104.312981,34.442749
0.008545,-0.693604,1.130127,14.839695,102.610687,39.396946
-0.048828,-0.616211,1.310791,15.740458,92.358780,40.748093
-0.101318,-0.558350,1.607422,11.061069,88.603050,39.709923
-0.151367,-0.621094,1.863037,26.458015,86.694656,43.832062
-0.081055,-0.336670,1.984314,0.305344,95.618324,25.007633
-0.274658,-0.484619,1.984314,13.679389,84.183205,3.114504
-0.296631,-0.549072,1.984314,28.358778,89.114502,20.259542
-0.252686,-0.378662,1.984314,19.687023,110.610687,43.229008
-0.271729,-0.226318,1.984314,31.404581,105.786263,28.526718
-0.392578,-0.231445,1.984314,27.435114,95.152672,21.931297
-0.428467,-0.157959,1.984314,24.099237,81.282440,26.412214
-0.376465,-0.070557,1.984314,27.030535,68.267174,24.053434
-0.341309,0.028320,1.984314,32.061069,64.343513,24.190840
-0.320313,0.147217,1.984314,32.488548,58.625954,22.190840
-0.286133,0.246338,1.984314,33.000000,50.641220,19.343512
-0.242187,0.325439,1.984314,35.656490,42.129772,18.641222
-0.121582,0.500977,1.984314,33.603054,59.763359,14.709924
-0.139404,0.637695,1.984314,37.175571,42.343510,18.297710
0.019531,0.782227,1.984314,41.709923,37.061069,17.206106
0.081055,0.878174,1.984314,43.694656,26.648855,14.954199
0.189453,1.000732,1.984314,40.213741,18.709923,16.610687
0.299072,1.078369,1.984314,36.137405,4.465649,12.160305
0.429687,1.107178,1.984314,32.213741,-11.832061,10.984733
0.572266,1.142334,1.984314,33.106869,-18.236641,8.740458
0.677734,1.238281,1.984314,35.343510,-24.122137,7.519084
0.811035,1.326172,1.984314,34.992367,-35.625954,4.259542
0.943848,1.343994,1.984314,32.038166,-28.755726,4.824428
1.075684,1.357666,1.984314,30.396946,-36.328243,2.427481
1.177979,1.372314,1.823242,32.129772,-42.595421,0.755725
1.256104,1.384277,1.587891,32.786259,-47.923664,-0.412214
1.336914,1.350342,1.313721,34.114502,-53.595421,0.045802
1.419434,1.346680,1.120850,35.580154,-58.488548,-1.480916
1.507568,1.387695,0.939209,39.557251,-65.931297,-2.122137
1.568604,1.384766,0.756348,37.847328,-77.961830,1.732824
1.710449,1.359619,0.596680,33.671757,-86.122139,-0.992366
1.791016,1.343506,0.468262,29.549618,-94.656487,1.022901
1.823486,1.275635,0.248535,32.473282,-91.122139,2.977099
1.981445,1.340820,0.139648,27.564886,-104.007637,7.900764
1.984314,1.283691,-0.257568,19.679390,-122.854965,8.908397
1.984314,1.373047,-0.159912,15.297709,-86.801529,-24.213741
1.984314,1.062988,-0.481689,21.129770,-43.549618,-46.465649
1.984314,0.956299,-0.800293,20.725191,-60.099236,-16.763359
1.984314,1.145752,-0.873779,11.503817,-62.137405,-2.870229
1.984314,1.025391,-1.278564,2.564885,-65.954201,-19.351145
1.984314,0.827393,-1.497314,6.114504,-54.633587,-21.328245
1.984314,0.783203,-1.594238,10.427481,-35.114502,-17.435114
1.984314,0.889648,-1.757324,27.816793,-18.358778,-26.335878
1.984314,0.720459,-1.891602,23.198473,-15.885496,-20.687023
1.984314,0.752441,-2.000000,16.549618,-39.458015,6.679389
1.949951,0.681396,-2.000000,-23.954199,-102.671753,55.885498
1.984314,0.472412,-2.000000,-44.236641,-129.030533,50.847328
1.984314,0.352051,-2.000000,-41.022900,-105.977097,11.221375
1.984314,-0.375732,-2.000000,155.259537,132.755722,-250.137405
1.984314,-0.216309,-2.000000,179.488556,248.175568,-194.458008
1.426270,0.460937,-2.000000,157.961838,184.190842,-82.938934
1.327393,0.790527,-2.000000,106.839691,37.519085,-20.038168
1.645020,0.537109,-2.000000,30.641222,-65.839691,-2.030534
1.984314,0.195068,-2.000000,5.526718,-92.709923,-7.274809
1.984314,-0.058105,-2.000000,17.816793,-66.458015,-21.824427
1.984314,-0.184326,-2.000000,36.053436,-11.480916,-47.290077
1.984314,-0.307129,-2.000000,63.641220,27.931297,-58.213741
1.789551,-0.325439,-2.000000,75.572517,40.045803,-55.816795
1.598145,-0.367676,-2.000000,77.809158,38.900764,-53.419846
1.467285,-0.487061,-2.000000,83.091606,25.114504,-51.450382
1.408936,-0.609863,-2.000000,97.389313,18.412214,-59.198475
1.798828,0.891113,-1.146240,132.175568,9.702291,-71.114502
1.908691,0.839844,-1.575684,157.320618,14.786260,-78.732826
1.981201,0.834473,-1.924316,171.610687,25.717558,-83.267174
1.984314,0.831543,-2.000000,176.068695,39.877861,-88.618324
1.984314,0.807129,-2.000000,175.946564,58.129772,-88.022903
1.984314,0.839111,-2.000000,170.343506,76.923668,-85.427483
1.971680,0.971924,-2.000000,135.160309,89.916031,-81.030533
1.885742,1.082764,-2.000000,78.045799,95.106873,-77.839691
1.762939,1.030029,-2.000000,13.793893,88.366409,-68.839691
1.687012,0.859619,-2.000000,-46.183205,72.312981,-60.557251
1.653564,0.592285,-2.000000,-78.190842,37.816795,-58.099236
1.648682,0.337402,-2.000000,-93.259544,34.816795,-60.160305
1.654541,0.134521,-2.000000,-86.633591,46.229008,-71.786263
1.577393,-0.025635,-2.000000,-69.236641,66.717560,-85.557251
1.449951,-0.059570,-2.000000,-48.603054,89.992363,-90.709923
1.298340,-0.000488,-2.000000,-38.633587,107.427483,-85.282440
1.137451,0.086914,-2.000000,-46.091602,116.198471,-77.167938
0.947021,0.105469,-2.000000,-66.854965,115.526718,-66.824425
0.764404,0.031738,-2.000000,-85.435112,106.236641,-57.580154
0.621338,-0.105713,-2.000000,-102.832062,96.282440,-53.251907
0.478516,-0.257324,-2.000000,-124.068703,79.343513,-54.694656
0.339600,-0.349121,-1.542480,-124.374046,80.725189,-54.793892
0.219727,-0.373047,-1.027344,-110.175575,86.572517,-56.328243
0.107910,-0.343506,-0.538330,-88.465652,96.900764,-59.198475
-0.024414,-0.286133,-0.088867,-70.381676,105.541985,-61.236641
-0.182861,-0.199219,0.342285,-61.152672,112.458015,-61.419846
-0.353760,-0.110596,0.735107,-55.251907,114.931297,-60.465649
-0.496582,-0.025635,1.090820,-52.557251,110.061066,-59.931297
-0.610596,0.030762,1.451172,-52.816795,101.213737,-59.977100
-0.686768,0.083984,1.848389,-49.832062,90.389313,-61.832062
-0.725586,0.150635,1.984314,-55.992367,83.022903,-64.526718
-0.728271,0.272217,1.984314,-47.923664,78.343513,-69.366409
-0.732422,0.414551,1.984314,-40.656490,74.603050,-76.587784
-0.768555,0.520752,1.984314,-39.068703,68.412216,-83.183205
-0.809326,0.622803,1.984314,-35.656490,65.183205,-86.977097
-0.821045,0.663574,1.984314,-39.267174,62.740459,-85.595421
-0.816162,0.661377,1.984314,-43.786259,55.015266,-83.816795
-0.754395,0.739014,1.984314,-34.786259,46.847328,-87.351143
-0.707275,0.891602,1.984314,-14.854961,45.702290,-96.572517
-0.691650,1.061279,1.984314,-3.977099,49.160305,-103.412216
-0.723145,1.172852,1.984314,-15.725191,66.664124,-101.465652
-0.790039,1.204834,1.984314,-29.251909,60.580154,-94.145035
-0.789062,1.188477,1.984314,-34.022900,40.671757,-81.946564
-0.656494,1.222656,1.984314,-19.351145,16.503817,-74.305344
-0.472168,1.291016,1.984314,0.595420,-0.213740,-74.984734
-0.321289,1.386963,1.984314,21.801527,5.450382,-81.519081
-0.284424,1.433594,1.984314,39.488548,20.625954,-86.038170
-0.356934,1.438965,1.984314,36.076336,26.984734,-78.832062
-0.445557,1.437988,1.984314,28.923664,18.190840,-64.244278
-0.507080,1.438965,1.984314,11.847328,-0.664122,-42.061069
-0.367432,1.488281,1.984314,24.396946,-0.015267,-45.297710
-0.489258,1.244141,1.984314,9.381680,-32.167938,-67.282440
-0.420898,1.467529,1.984314,-11.083969,-30.648855,-22.022902
-0.285645,1.541504,1.984314,-15.954199,-26.549618,5.458015
-0.257568,1.474121,1.984314,-46.221375,-26.221375,11.740458
-0.320557,1.290039,1.984314,-73.206108,-26.160305,14.328244
-0.401855,0.992676,1.984314,-94.335876,-34.801525,34.580154
-0.364014,0.831055,1.984314,-74.000000,-43.259541,60.374046
-0.177490,0.959473,1.984314,-11.702291,-40.832062,72.977097
0.030518,1.197266,1.984314,33.832062,-20.083969,68.022903
0.114990,1.389160,1.984314,35.526718,22.740458,61.946564
0.083496,1.592529,1.984314,44.435116,44.916031,49.603054
-0.002930,1.761963,1.984314,50.419846,53.083969,44.862595
-0.114258,1.811279,1.984314,39.946564,53.618320,50.297710
-0.221436,1.696045,1.984314,10.946565,49.396946,69.244278
-0.267822,1.642090,1.984314,11.946565,37.687023,92.045799
-0.160400,1.675781,1.984314,32.045803,11.473283,100.717560
0.055664,1.800293,1.984314,45.251907,-8.305344,96.465652
0.260254,1.915283,1.984314,63.916031,-17.916031,82.335876
0.407227,1.932861,1.984314,73.358780,-16.366413,61.931297
0.439453,1.935791,1.984314,69.480919,17.038168,46.816795
0.380615,1.984314,1.984314,74.335876,32.274811,30.954199
0.220215,1.984314,1.984314,57.183205,31.946566,17.198473
0.041748,1.984314,1.984314,9.786260,15.618320,15.343512
-0.036377,1.676514,1.984314,-19.610687,-0.083969,26.671755
0.079102,1.511719,1.984314,-10.526717,-10.519084,36.534351
0.229248,1.458252,1.984314,16.251909,-7.137404,39.045803
0.297363,1.490479,1.984314,58.801525,12.801527,32.022900
0.331299,1.535889,1.984314,99.290077,24.114504,31.557251
0.358643,1.787598,1.984314,115.366409,33.244274,24.068703
-0.537598,0.228271,1.984314,96.679390,59.694656,14.129771
-0.644775,0.160156,1.984314,55.213741,42.106869,8.992367
-0.697266,0.020020,1.984314,27.885496,26.366413,7.931298
-0.620117,-0.302002,1.984314,43.801525,12.473283,23.526718
-0.438965,-0.459473,1.984314,63.961834,18.702290,43.167938
-0.284180,-0.269043,1.984314,96.877861,48.580154,46.145039
-0.263184,0.182861,1.984314,136.244278,85.694656,23.969465
-0.473145,-0.145020,1.984314,78.282440,89.572517,30.526718
-0.631348,0.173096,1.984314,82.916031,103.442749,39.076336
-0.845459,-0.074707,1.984314,87.000000,84.366409,35.320610
-0.951904,-0.014160,1.984314,61.473282,94.786263,49.748093
-0.815674,-0.401367,1.984314,68.381676,70.274811,61.580154
-0.746826,0.011230,1.984314,74.045799,75.267174,66.427483
-0.699463,0.102295,1.984314,107.496185,91.549622,49.702290
-0.757080,0.069824,1.984314,67.427483,84.396950,57.251907
-0.751953,0.238037,1.984314,82.396950,96.801529,51.549618
-0.805908,0.311035,1.984314,86.244278,102.725189,47.061069
-0.895996,0.382080,1.984314,75.923668,113.404579,48.687023
-0.952393,0.500488,1.984314,74.847328,110.312981,50.984734
-0.950195,0.564941,1.984314,74.038170,94.923668,51.679390
-0.889648,0.603027,1.984314,59.900764,99.320610,49.786259
-0.844238,0.612305,1.984314,55.251907,93.396950,45.358780
-0.822266,0.661133,1.984314,50.091602,91.351143,34.458015
-0.827881,0.683350,1.984314,47.893131,80.793892,21.786259
-0.767090,0.630127,1.984314,42.656490,51.305344,12.916031
-0.626221,0.550537,1.984314,34.877861,24.633587,3.954198
-0.498291,0.455811,1.984314,36.450382,19.091602,-10.419847
-0.447021,0.407227,1.984314,38.816795,26.267176,-12.297709
-0.407227,0.446289,1.984314,56.480915,40.526718,16.297710
-0.338623,0.461182,1.984314,83.679390,58.106869,33.496181
-0.269043,0.598633,1.984314,87.671753,98.206108,30.526718
-0.369385,0.751953,1.984314,88.030533,108.832062,15.862596
-0.506836,0.830566,1.984314,97.450378,93.519081,19.198473
-0.519531,0.945801,1.984314,96.770996,78.778625,24.938931
-0.487793,1.074463,1.984314,97.160309,71.175575,21.167938
-0.471436,1.153809,1.984314,94.755722,65.320610,17.625954
-0.480225,1.210449,1.984314,91.618324,65.778625,16.786259
-0.541504,1.213379,1.984314,82.030533,65.167938,21.076336
-0.599365,1.248047,1.984314,80.328247,61.061069,27.786259
-0.640625,1.299805,1.984314,79.778625,61.748093,32.618320
-0.660889,1.395508,1.984314,69.450378,74.099236,40.145039
-0.645508,1.498779,1.984314,81.809158,56.641220,41.305344
-0.522217,1.602783,1.984314,91.770996,45.511452,40.045803
-0.311523,1.667236,1.984314,92.854965,27.030535,34.488548
-0.074951,1.552734,1.984314,86.992363,9.236641,26.931297
0.177979,1.376953,1.984314,99.931297,7.244275,19.633587
0.401611,1.272705,1.984314,141.366409,20.885496,10.251908
0.569580,1.339600,1.984314,194.045807,48.038166,-3.580153
0.633301,1.467285,1.984314,237.419846,71.885498,-18.038168
0.608887,1.616943,1.984314,248.175568,80.664124,-29.496183
0.589111,1.648926,1.984314,248.175568,89.870232,-31.748091
0.655518,1.579102,1.984314,248.175568,72.870232,-34.549618
0.728271,1.483643,1.984314,248.175568,76.709923,-40.022900
0.823975,1.368408,1.984314,248.175568,97.770996,-51.274811
0.829102,1.250244,1.984314,248.175568,118.877861,-63.923664
0.715576,1.383057,1.984314,248.175568,155.038162,-79.618324
0.428711,1.671387,1.984314,248.175568,185.038162,-86.396950
0.141113,1.950439,1.984314,248.175568,194.007629,-79.389313
-0.119629,1.984314,1.984314,248.175568,173.412216,-68.435112
-0.312012,1.984314,1.984314,248.175568,137.160309,-59.648853
-0.373779,1.984314,1.984314,230.801529,113.099236,-49.633587
-0.457275,1.984314,1.984314,164.839691,85.717560,-56.702290
-0.486572,1.984314,1.984314,109.969467,83.328247,-76.122139
-0.707275,1.984314,1.984314,38.473282,76.816795,-84.641220
-0.909912,1.984314,1.984314,-35.664124,77.045799,-76.145035
-1.183838,1.726318,1.984314,-105.282440,48.076336,-52.946564
-1.296875,1.407227,1.984314,-154.038162,19.305344,-28.274809
-1.435303,1.333984,1.984314,-202.503815,-8.671756,-11.656488
-1.531738,1.341553,1.984314,-246.312973,-31.595419,-1.213740
-1.533691,1.099854,1.984314,-250.137405,-46.702290,9.267176
-1.504883,0.743652,1.984314,-250.137405,-74.145035,12.862596
-1.347900,0.279053,1.984314,-250.137405,-119.236641,18.145039
-0.865479,0.041016,1.984314,-250.137405,-160.763351,4.213740
-0.471436,0.138916,1.984314,-250.137405,-152.519089,-33.648853
-0.305176,0.408691,1.984314,-250.137405,-81.885498,-48.572517
-0.446045,0.692383,1.984314,-250.137405,15.488549,-58.366413
-0.851807,0.826904,1.984314,-250.137405,86.656487,-49.641220
-1.273438,0.811523,1.984314,-250.137405,92.656487,-17.992367
-1.443115,0.802246,1.984314,-250.137405,55.625954,30.587786
-1.183105,1.007568,1.984314,-250.137405,4.160306,28.496183
-0.618652,-0.727783,0.528076,-250.137405,-27.770992,16.809160
-0.434082,-0.827148,0.940918,-220.122131,-29.374046,0.114504
-0.397949,-0.890381,1.230469,-164.877869,-0.007634,-0.007634
-0.508545,-0.913086,1.353027,-98.442749,23.938931,-18.351145
-0.704346,-0.992187,1.415527,-42.274811,22.442749,-34.656490
-0.815430,-0.995605,1.462158,-13.755725,6.091603,3.427481
-0.672852,-0.753418,1.476074,-3.854962,-9.916031,39.961834
-0.554687,-0.689941,1.602295,-21.519083,-25.526718,39.267174
-0.443848,-0.615967,1.807617,-51.862595,-23.198473,62.656490
-0.360107,-0.595459,1.984314,-63.229008,-15.679389,81.992363
-0.337646,-0.748291,1.984314,-64.519081,2.137405,100.931297
-0.283203,-0.815186,1.984314,-9.778625,7.458015,114.412216
-0.100098,-0.651855,1.984314,52.748093,16.725191,116.809158
0.101318,-0.074707,1.984314,96.732826,27.122137,94.526718
0.201416,0.169434,1.984314,64.251907,43.152672,68.916031
0.166504,0.307861,1.984314,28.587786,78.396950,40.343510
-0.050537,0.043945,1.984314,1.396947,101.717560,15.091603
-0.254395,-0.146973,1.984314,4.305344,114.885498,7.625954
-0.376221,-0.277832,1.984314,32.961834,120.755722,28.870230
-0.378174,-0.273682,1.984314,59.190838,132.893127,62.770992
-0.372314,-0.257813,1.984314,41.419846,152.786255,77.625954
-0.509277,-0.350098,1.984314,26.435114,151.770996,75.183205
-0.699707,-0.358398,1.984314,28.786259,136.580154,79.198471
-0.778076,-0.189209,1.984314,38.389313,111.198471,89.083969
-0.720947,0.156738,1.984314,72.167938,91.702293,80.549622
-0.675781,0.500488,1.984314,92.000000,68.801529,55.404579
-0.666748,0.688721,1.984314,71.190842,54.938931,28.007633
-0.675049,0.683594,1.984314,35.748093,48.473282,1.290076
-0.745117,0.479980,1.984314,-8.977099,40.450382,-12.526717
-0.769043,0.341553,1.984314,-37.496181,33.641220,-6.595420
-0.747803,0.120850,1.984314,-57.534351,41.664124,12.862596
-0.720459,-0.041016,1.984314,-23.427481,61.358780,31.954199
-0.731445,0.047363,1.984314,37.938931,83.656487,45.030533
-0.780518,0.239990,1.984314,82.465652,85.801529,47.671757
-0.808594,0.370117,1.984314,111.190842,79.328247,39.297710
-0.826172,0.371582,1.984314,133.740463,72.877861,29.740458
-0.792969,0.153076,1.984314,160.793900,71.862595,35.656490
-0.735107,0.037354,1.984314,189.893127,83.564888,44.167938
-0.719727,0.117432,1.984314,230.717560,101.923668,42.068703
-0.760742,0.220703,1.984314,248.175568,111.923668,38.603054
-0.796875,0.468506,1.984314,242.572525,118.282440,40.015266
-0.775635,0.633057,1.984314,220.938934,109.480919,38.816795
-0.766602,0.636230,1.984314,166.625961,90.503815,42.366413
-0.784180,0.487061,1.984314,110.068703,82.335876,62.625954
-0.781738,0.428711,1.984314,79.045799,70.221375,86.557251
-0.694824,0.510010,1.984314,85.496185,68.045799,95.671753
-0.617432,0.706543,1.984314,97.709923,59.908398,85.610687
-0.666260,0.809326,1.984314,60.076336,54.549618,77.000000
-0.826172,0.755859,1.984314,8.969465,44.572517,81.190842
-0.922363,0.567139,1.984314,-60.122139,21.175573,100.267174
-0.872559,0.446533,1.984314,-134.213745,-10.099236,122.618324
-0.710693,0.426270,1.984314,-165.175568,-39.251907,130.312973
-0.564941,0.328125,1.984314,-183.198471,-57.190838,132.244278
-0.464355,0.217529,1.984314,-186.244278,-67.473282,136.725189
-0.384277,0.121094,1.984314,-165.587784,-71.824425,142.694656
-0.329590,0.055176,1.984314,-129.854965,-74.648857,149.900757
-0.282959,0.076416,1.984314,-91.664124,-86.267174,160.717560
-0.048584,0.315918,1.984314,-13.480916,-92.137405,161.549622
0.267578,0.777832,1.984314,101.007637,-88.213737,129.503815
0.425293,1.459717,1.984314,175.496185,-62.717556,80.877861
0.410400,1.984314,1.984314,196.664124,6.633588,21.351145
0.212158,1.984314,1.984314,124.412216,49.190838,15.053435
-0.093262,1.535645,1.984314,-36.610687,37.488548,70.465652
0.009033,0.768555,1.984314,-143.305344,43.244274,98.328247
0.242432,0.158691,1.984314,-182.488556,35.572517,98.480919
0.504639,0.065186,1.984314,-120.702293,35.541985,62.908398
0.527588,0.440918,1.984314,1.282443,83.053436,-3.282443
0.263672,1.009277,1.984314,67.404579,76.351143,-42.931297
0.045898,1.601074,1.984314,96.763359,42.412212,-52.877861
-0.006104,1.904297,1.984314,106.946564,39.816795,-36.625954
0.157227,1.834961,1.984314,67.618324,22.152672,8.977099
0.465332,1.693604,1.984314,11.564885,26.534351,35.885498
0.651367,1.524902,1.984314,-8.580153,57.931297,37.244274
0.694092,1.432129,1.984314,-4.977099,72.412216,36.229008
0.693604,1.446777,1.984314,24.702290,80.297707,14.297709
0.635254,1.449707,1.984314,42.778625,58.770992,-0.908397
0.645752,1.314941,1.984314,55.000000,34.740459,-1.809160
0.789307,1.268555,1.984314,47.419846,21.679390,-0.740458
0.937988,1.351074,1.984314,27.664122,7.725191,6.419847
-0.073242,0.057373,1.984314,15.152672,36.770992,5.496183
-0.153320,0.169922,1.984314,10.450381,47.404579,-5.152672
-0.304443,0.180176,1.984314,12.687023,48.007633,-3.740458
-0.380371,0.203857,1.984314,35.229008,53.877861,-2.496183
-0.449707,0.230225,1.984314,50.732826,39.167938,-0.648855
-0.435791,0.288086,1.984314,60.618320,16.114504,2.183206
-0.364014,0.381592,1.984314,74.282440,13.519084,-3.129771
-0.354736,0.435547,1.984314,76.335876,16.351145,-6.374046
-0.347412,0.466309,1.984314,73.030533,14.015267,-4.587786
-0.320068,0.480469,1.984314,59.053436,4.984733,-3.305344
-0.253418,0.526611,1.984314,52.893131,16.106871,-5.129771
-0.178223,0.581299,1.984314,60.297710,19.236641,-13.473283
-0.145020,0.623291,1.984314,68.572517,17.022902,-21.664122
-0.120605,0.735840,1.984314,67.045799,6.603054,-26.450382
-0.077881,0.913818,1.984314,65.015266,-0.068702,-31.229008
-0.007324,1.058838,1.984314,59.809162,-13.824428,-31.358778
0.082764,1.189453,1.984314,53.610687,-23.610687,-30.526718
0.154785,1.298828,1.984314,48.702290,-19.648855,-30.038168
0.203369,1.377197,1.984314,45.267174,-16.801527,-29.480917
0.229980,1.392090,1.984314,41.198475,-15.587787,-33.595421
0.249512,1.326416,1.984314,36.549618,-5.687023,-32.229008
0.278564,1.255127,1.984314,12.022901,-40.488548,-23.931297
0.392822,1.331543,1.984314,-0.893130,-48.572517,-23.267176
0.510742,1.502686,1.984314,15.603053,-42.374046,-29.587786
0.585205,1.633301,1.984314,21.282442,-53.557251,-31.656488
0.686035,1.668945,1.984314,6.572519,-61.099236,-26.793894
0.831299,1.792480,1.984314,-2.343511,-51.801525,-26.534351
0.933838,1.780273,1.854248,-10.511451,-60.763359,-33.862595
1.019043,1.470947,1.305420,-34.755726,-91.458015,-32.015266
1.195068,1.254150,0.989746,-42.984734,-106.381676,-25.816793
1.403076,1.336914,0.757812,-6.007634,-84.702293,-29.923664
1.549561,1.616943,0.369629,37.664124,-66.984734,-47.213741
1.585693,1.790039,-0.082764,48.977100,-63.709923,-53.183205
1.596191,1.728271,-0.447998,22.458015,-67.229004,-38.717556
1.656250,1.575439,-0.870117,-22.099237,-71.572517,-19.641222
1.747559,1.374512,-1.252686,-45.351147,-80.839691,-14.389313
1.842285,1.075928,-1.730957,-44.526718,-95.190842,-15.480916
1.958008,0.812744,-2.000000,-31.832062,-99.824425,-17.877863
1.984314,0.722168,-2.000000,-9.038168,-86.664124,-24.419847
1.984314,0.809082,-2.000000,4.480916,-69.664124,-32.045803
1.984314,0.808838,-2.000000,4.603054,-74.061066,-35.809162
1.984314,0.719238,-2.000000,-20.511450,-76.076332,-32.923664
1.978271,0.519287,-2.000000,-44.145039,-79.244278,-29.534351
1.969727,0.265625,-2.000000,-57.679390,-76.083969,-29.244274
1.947754,0.043457,-2.000000,-58.412212,-61.778625,-33.358780
1.848877,-0.087646,-2.000000,-52.015266,-43.541985,-38.381680
1.710938,-0.206787,-2.000000,-46.908398,-31.801527,-38.106869
1.581787,-0.320068,-2.000000,-43.389313,-20.938931,-34.656490
1.460449,-0.414307,-2.000000,-36.503819,-6.427481,-30.496183
1.346680,-0.448975,-2.000000,-27.541985,10.496183,-29.053434
1.192627,-0.457275,-2.000000,-19.938931,4.938931,-34.908398
1.036865,-0.501709,-2.000000,-22.923664,12.832061,-33.183205
0.877686,-0.602783,-2.000000,-35.328243,16.717558,-27.984734
0.723633,-0.750488,-1.860107,-45.435116,17.244274,-20.931297
0.599854,-0.858154,-1.438965,-44.725189,22.015266,-11.198473
0.520264,-0.886719,-0.958008,-30.274809,36.068703,-2.870229
0.420166,-0.814209,-0.496826,-11.190840,53.366413,0.786260
0.321533,-0.656250,-0.042236,5.435114,69.381676,-1.969466
0.218994,-0.517090,0.408936,10.290076,75.854965,-5.412214
0.122314,-0.413574,0.848633,-0.145038,73.351143,-4.603054
0.080322,-0.354492,1.320557,-20.961832,59.137405,-2.809160
0.049072,-0.349365,1.734863,-33.480915,69.007637,-0.343511
-0.010498,-0.313477,1.984314,-39.053436,86.732826,-1.175573
-0.122559,-0.224609,1.984314,-33.778625,104.221375,-8.312977
-0.262939,-0.166260,1.984314,-29.000000,105.167938,-11.015267
-0.355225,-0.124512,1.984314,-32.870228,96.389313,-6.679389
-0.387207,-0.106445,1.984314,-35.267174,92.938934,-0.603053
-0.403809,-0.020264,1.984314,-25.694656,101.648857,1.381679
-0.436768,0.170898,1.984314,-10.404580,111.580154,-0.343511
-0.491699,0.361572,1.984314,-1.702290,112.503815,-0.091603
-0.520752,0.509033,1.984314,-14.671756,103.969467,3.030534
-0.507568,0.644775,1.984314,-21.068703,98.847328,6.297710
-0.458984,0.735352,1.984314,-19.167938,95.290077,7.862596
-0.390625,0.826904,1.984314,-12.114504,92.442749,8.114504
-0.317139,0.939697,1.984314,-4.229008,89.175575,7.297710
-0.226318,1.085938,1.984314,3.755725,81.854965,6.854962
-0.093750,1.309814,1.984314,12.625955,72.007637,7.160306
0.036377,1.439209,1.984314,16.343512,62.770992,4.106870
0.177979,1.487549,1.984314,30.694656,60.992367,0.633588
0.307617,1.472900,1.984314,50.007633,62.633587,-4.229008
-0.358887,-0.174805,1.984314,62.984734,80.358780,-3.725191
-0.446289,-0.072021,1.984314,81.412216,80.404579,-3.145038
-0.499756,0.067383,1.984314,91.786263,75.221375,-0.778626
-0.549072,0.184082,1.984314,89.679390,63.038166,-0.480916
-0.593018,0.219482,1.984314,82.709923,49.206108,-1.961832
-0.597900,0.257324,1.984314,81.305344,33.450382,-1.534351
-0.561035,0.376221,1.984314,86.702293,18.671755,-2.404580
-0.522217,0.532471,1.984314,87.351143,9.534351,-7.679389
-0.511719,0.661865,1.984314,88.557251,3.381679,-11.717557
-0.491455,0.758545,1.984314,89.000000,-0.435115,-12.351145
-0.477295,0.854492,1.984314,76.137405,18.145039,-5.290076
-0.433350,0.983643,1.984314,67.496185,6.015267,-0.946565
-0.353516,1.071045,1.984314,65.946564,-10.007633,-4.083970
-0.257568,1.072021,1.984314,65.465652,-21.564886,-5.519084
-0.145996,1.161133,1.984314,67.000000,-17.954199,-7.511450
-0.084229,1.345703,1.984314,64.351143,-15.793893,-11.129771
-0.021240,1.489258,1.984314,46.305344,-28.740458,-8.114504
0.072754,1.468750,1.984314,28.007633,-48.625954,-4.251908
0.225342,1.396973,1.984314,22.473282,-59.297710,14.656488
0.353516,1.341553,1.984314,2.900763,-48.458015,31.389313
0.441406,1.299072,1.984314,46.541985,-21.198473,32.068703
0.405518,1.277832,1.821533,60.022900,-9.213740,21.206106
0.282715,1.317871,1.518555,40.687023,-1.541985,31.465649
0.151855,1.306396,1.137451,8.526717,-2.809160,52.824429
0.060547,1.132568,0.700195,-23.114504,-41.167938,79.572517
0.060303,0.929443,0.556641,-11.129771,-76.778625,101.480919
0.221191,0.876465,0.346436,26.358778,-106.374046,109.564888
0.499023,1.145264,0.004395,60.122139,-140.030533,107.328247
0.853516,1.736816,-0.230469,43.038166,-176.122131,112.473282
1.418457,1.984314,-0.405029,9.755725,-250.137405,119.297707
1.984314,1.984314,-0.512695,-26.091602,-250.137405,115.916031
1.984314,1.864746,-0.551025,-85.954201,-250.137405,119.015266
1.984314,1.578857,-0.372070,-141.503815,-250.137405,248.175568
1.984314,1.720215,-1.032959,-99.442749,-134.145035,105.770996
1.984314,1.276123,-1.529053,-46.549618,-3.458015,-30.389313
1.984314,1.579590,-2.000000,0.832061,69.358780,-114.633591
1.984314,1.481445,-2.000000,32.679390,42.572517,-134.969467
1.984314,1.286621,-2.000000,80.038170,3.229008,-110.648857
1.974854,1.600586,-1.627930,111.412216,-51.129772,-64.847328
1.984314,1.898926,-1.406250,98.572517,-106.351143,-52.038166
1.984314,1.906494,-1.271973,58.511452,-146.687027,-50.404579
1.984314,1.710693,-1.072754,19.038168,-169.229004,-59.541985
1.984314,1.502441,-1.027588,6.717557,-165.946564,-85.610687
1.984314,1.273193,-1.022217,-9.404580,-145.427475,-89.480919
1.984314,1.219482,-1.013184,-14.839695,-114.389313,-42.908398
1.984314,1.213867,-1.114746,1.488550,-76.038170,-11.923664
1.984314,1.180664,-1.216797,17.725191,-47.977100,-11.847328
1.984314,1.183105,-1.290771,36.061069,-35.473282,-25.328245
1.869873,1.176514,-1.425293,47.282444,-49.267174,-36.786259
1.780029,1.165771,-1.507080,49.061069,-75.740456,-46.610687
1.774170,1.052979,-1.582520,56.480915,-99.145035,-43.274811
1.865479,1.043213,-1.620117,69.488548,-108.954201,-45.595421
1.908447,1.046143,-1.754395,85.068703,-94.374046,-51.679390
1.882324,1.007324,-1.951904,87.267174,-78.297707,-54.358780
1.913818,1.189453,-2.000000,63.519085,-84.778625,-118.671753
1.578857,0.828369,-2.000000,51.465649,-108.458015,-117.488548
1.616943,0.837891,-2.000000,42.900764,-106.717560,-45.671757
1.783447,0.861816,-2.000000,19.900763,-100.244278,-19.954199
1.826660,0.688477,-2.000000,3.244275,-88.740456,-10.648855
1.819336,0.583496,-2.000000,-5.526718,-76.000000,-17.916031
1.725098,0.395996,-2.000000,11.954199,-79.732826,-17.816793
1.707764,0.333252,-2.000000,12.557252,-85.389313,-23.709923
1.696533,0.244629,-2.000000,3.099237,-86.709923,-30.175573
1.651611,0.200439,-2.000000,-17.687023,-90.847328,-39.687023
1.583252,0.004150,-2.000000,-28.435114,-91.290077,-31.061069
1.557617,-0.135986,-2.000000,-40.206108,-88.030533,-23.114504
1.479492,-0.328613,-2.000000,-51.015266,-78.374046,-18.374046
1.368164,-0.464844,-2.000000,-50.893131,-59.748093,-15.900764
1.136475,-0.596436,-2.000000,-39.053436,-46.427483,-9.709924
0.985107,-0.619873,-2.000000,-37.427483,-36.694656,-5.824428
0.824219,-0.620605,-2.000000,-28.870230,-43.068703,-12.122137
0.665039,-0.605713,-2.000000,-33.572517,-34.335876,-11.809160
0.488525,-0.671387,-1.582275,-44.099236,-19.648855,-0.534351
0.322510,-0.725830,-1.082764,-51.770992,0.450382,9.969465
0.145996,-0.741699,-0.531250,-47.717556,21.229008,14.916031
-0.016113,-0.727783,0.038330,-40.786259,35.618320,16.396946
-0.154297,-0.653076,0.564941,-38.312977,48.320610,17.175573
-0.285889,-0.554443,1.134033,-39.740459,61.145039,15.335877
-0.389648,-0.485107,1.729248,-37.114502,71.389313,12.091603
-0.466064,-0.387207,1.984314,-26.190840,81.557251,6.198473
1.159424,-0.563721,-2.000000,-20.114504,78.931297,-0.687023
0.999756,-0.617432,-2.000000,-14.167939,86.465652,-4.793893
0.839111,-0.659180,-2.000000,-20.748091,88.137405,-9.938931
0.707031,-0.708984,-1.924805,-18.320610,89.045799,-9.648855
0.586914,-0.716064,-1.658447,-6.709924,88.572517,-11.877863
0.441895,-0.733398,-1.402832,-6.236641,93.526718,-12.114504
0.230713,-0.824219,-1.110352,-41.954197,116.534348,30.610687
0.061523,-0.896729,-0.510498,3.519084,133.694656,50.816795
-0.211426,-0.859863,-0.189209,22.496183,160.114502,56.992367
-0.489990,-0.640869,0.128418,1.206107,176.312973,66.809158
-0.760254,-0.584473,0.356201,-35.702290,152.793900,77.709923
-0.945312,-0.679443,0.733643,-42.251907,100.183205,89.557251
-1.078369,-0.651855,1.403320,-37.977100,75.816795,106.664124
-1.040039,-0.433350,1.957520,-34.557251,26.343512,125.236641
-0.687988,-0.007324,1.984314,-26.557251,-68.488548,132.114502
-0.040039,0.467285,1.984314,-1.603053,-160.664124,123.580154
0.812256,0.767578,1.984314,8.114504,-210.671753,107.145035
1.654053,0.856689,1.984314,-5.175572,-223.053436,91.152672
1.984314,0.806396,1.984314,-6.717557,-154.816788,78.786263
1.984314,1.079346,1.984314,-18.625954,89.160309,107.389313
1.708984,0.341797,1.984314,-0.053435,184.717560,-74.793892
0.597656,0.139648,1.984314,42.526718,235.229004,-101.358780
-0.029053,0.380127,1.984314,68.717560,248.175568,-53.145039
-0.331543,0.665039,1.984314,73.763359,197.312973,-37.473282
-0.495605,0.802002,1.984314,66.763359,87.809158,-38.175571
-0.399170,0.843994,1.984314,50.160305,-1.755725,-30.793894
-0.115723,0.836182,1.984314,30.923664,-38.259541,-20.809160
0.142578,0.838135,1.984314,19.450382,-27.366413,-19.374046
0.239502,0.845215,1.984314,18.328245,12.870229,-23.854961
0.184326,0.846436,1.984314,22.106871,53.091602,-23.809160
0.047363,0.882568,1.984314,21.824427,92.679390,-19.305344
-0.057861,0.934570,1.984314,27.251909,81.320610,-22.091602
-0.100586,0.975830,1.984314,28.816793,57.854961,-28.381680
-0.080078,0.960205,1.984314,26.450382,33.786259,-35.534351
0.026367,0.901123,1.984314,30.206106,17.045801,-55.335876
-0.007813,0.823730,1.984314,46.190838,17.312977,-65.000000
-0.011230,0.906494,1.984314,62.725189,32.297710,-61.183205
-0.053223,0.971191,1.984314,70.740456,38.427483,-58.839695
-0.092041,1.127686,1.984314,68.419846,37.908398,-64.557251
-0.145508,1.202148,1.984314,60.587788,29.809160,-71.045799
-0.177734,1.257813,1.984314,46.977100,29.893129,-66.320610
-0.109375,1.346191,1.984314,37.778625,10.572519,-68.091606
-0.015625,1.365479,1.984314,31.770992,-5.702290,-65.343513
0.112549,1.359619,1.984314,27.549618,-12.671756,-56.305344
0.193848,1.342529,1.984314,25.236641,-7.076336,-42.725189
0.269287,1.366211,1.984314,23.022902,3.343511,-27.221375
0.330322,1.451172,1.984314,36.656490,4.770992,-23.473282
0.389160,1.618896,1.984314,50.816795,-7.717557,-27.824427
0.459717,1.763916,1.982666,60.526718,-32.244274,-42.236641
0.569580,1.848877,1.784668,60.793892,-59.442749,-50.816795
0.707764,1.886963,1.630615,54.671757,-53.633587,-40.961834
0.842529,1.835449,1.517578,41.641220,-48.320610,-31.114504
0.969971,1.752197,1.333984,36.816795,-38.038166,-27.343512
1.018311,1.665771,1.076660,37.534351,-27.152672,-23.572519
1.045654,1.627197,0.786621,45.877861,-21.419847,-21.007633
1.060303,1.604004,0.506348,41.778625,-21.954199,-24.282442
1.045166,1.572266,0.209229,40.351147,-31.541985,-29.664122
1.081543,1.517822,-0.114258,32.877861,-50.435116,-24.587786
1.167969,1.474365,-0.396729,21.877863,-63.480915,-19.503817
1.275635,1.415771,-0.660400,19.396946,-68.809158,-9.694656
1.399658,1.385986,-0.939209,26.038168,-56.297710,-1.969466
1.483643,1.356445,-1.205566,29.816793,-54.435116,-4.083970
1.524658,1.297607,-1.511719,32.297710,-55.290077,-8.129771
1.536621,1.219971,-1.808105,30.603054,-58.687023,-10.916031
1.536133,1.142822,-2.000000,28.244274,-64.893127,-11.664123
1.577393,1.088379,-2.000000,28.320610,-74.129768,-14.274809
1.645020,1.035889,-2.000000,27.511450,-83.412216,-16.969465
1.731445,0.962891,-2.000000,23.816793,-87.847328,-20.938931
1.783203,0.892334,-2.000000,14.038168,-86.679390,-25.732824
1.739258,0.706299,-2.000000,-5.618320,-81.603050,-21.916031
1.648926,0.456055,-2.000000,-25.198473,-73.091606,-0.213740
1.539307,0.199951,-2.000000,-32.534351,-73.519081,6.290076
1.350098,-0.040771,-2.000000,-25.610687,-67.633591,12.656488
1.127930,-0.073486,-2.000000,-22.053434,-58.282444,28.160305
0.879883,-0.069824,-2.000000,-20.847328,-62.908398,40.816795
0.631348,-0.357910,-2.000000,-46.183205,-78.091606,80.740456
0.503662,-0.603271,-2.000000,-58.770992,-89.244278,129.938934
0.433838,-0.552002,-2.000000,-27.480917,-100.213737,157.145035
0.518311,-0.182617,-2.000000,4.320611,-143.496185,164.580154
1.284668,1.933105,-1.556641,0.183206,-241.374039,160.633591
1.984314,1.984314,-1.338867,-59.312977,-250.137405,168.396942
1.984314,1.916504,-1.142334,-103.450378,-250.137405,164.946564
1.984314,1.276611,-1.423340,-119.541985,-250.137405,123.839691
1.984314,1.608887,-1.701416,-102.763359,-250.137405,248.175568
1.984314,1.863770,-2.000000,-73.167938,-67.038170,12.916031
1.984314,1.724121,-2.000000,-52.259541,159.496185,-119.984734
1.984314,1.319336,-2.000000,-27.244274,230.061066,-194.541992
1.984314,0.858887,-2.000000,14.816793,204.580154,-177.511444
1.932129,1.016602,-2.000000,34.786259,168.946564,-122.351143
1.631348,1.286621,-2.000000,71.763359,82.091606,-104.312981
1.542236,1.508789,-2.000000,67.793892,-16.396946,-96.748093
1.682373,1.631592,-2.000000,31.778625,-89.007637,-76.931297
1.950928,1.540527,-2.000000,-6.458015,-117.908394,-56.465649
1.984314,1.307617,-2.000000,-33.839695,-109.465652,-43.061069
1.984314,1.159180,-2.000000,-41.343510,-79.297707,-36.114502
1.984314,1.068359,-2.000000,-45.526718,-48.572517,-35.496181
1.984314,0.994385,-2.000000,-50.221375,-36.992367,-62.679390
1.984314,0.675293,-2.000000,-52.000000,-49.145039,-62.114502
1.984314,0.647217,-2.000000,-25.916031,-42.305344,-56.564884
1.984314,0.609863,-2.000000,-2.374046,-27.824427,-66.648857
1.984314,0.639160,-2.000000,29.824427,4.969466,-64.122139
1.984314,0.796875,-2.000000,-0.755725,13.435115,-123.664124
1.700684,0.575195,-2.000000,-8.503817,-6.992366,-111.755722
1.765625,0.635010,-2.000000,-31.557251,-7.755725,-53.328243
1.721924,0.510010,-2.000000,-73.351143,-8.687023,-69.389313
1.581299,0.240234,-2.000000,-84.786263,-11.358779,-55.404579
1.575439,0.063721,-2.000000,-91.229004,1.267176,-35.320610
1.493164,-0.128906,-2.000000,-82.496185,20.770992,-35.534351
1.318848,-0.319580,-2.000000,-73.038170,35.587788,-28.923664
1.149658,-0.388672,-2.000000,-61.251907,23.946566,-34.442749
1.012207,-0.387451,-2.000000,-62.702290,30.213741,-37.053436
0.815430,-0.523926,-2.000000,-62.946564,33.664124,-29.068703
0.693604,-0.575195,-2.000000,-62.748093,42.045803,-10.503817
0.557373,-0.676514,-1.912842,-61.038166,55.732826,0.198473
0.425293,-0.703369,-1.401367,-56.404579,74.076332,7.732824
0.279541,-0.722656,-0.868408,-45.000000,90.114502,13.778625
0.110840,-0.645264,-0.379639,-42.587788,96.213737,-4.572519
-0.143799,-0.646484,0.268311,-37.358780,93.809158,-16.045801
-0.278076,-0.566406,0.832520,-19.900763,93.770996,-3.778626
-0.364990,-0.425781,1.427734,-36.679390,90.519081,-5.435114
-0.494873,-0.352295,1.975098,-31.198473,97.091606,4.053435
-0.583984,-0.251709,1.984314,-26.022902,103.297707,12.587787
-0.649658,-0.117188,1.984314,-15.305344,108.114502,20.877863
-0.682129,0.089600,1.984314,-5.152672,109.641220,22.022902
-0.709473,0.279053,1.984314,6.580153,106.938934,23.389313
-0.686768,0.480957,1.984314,13.526717,101.328247,23.755726
-0.634521,0.650635,1.984314,17.083969,92.526718,23.335878
-0.568604,0.802734,1.984314,20.633587,80.534348,19.389313
-0.464844,0.930908,1.984314,26.679390,66.717560,16.190840
-0.342041,1.031982,1.984314,20.618320,68.664124,13.969465
-0.196777,1.123291,1.984314,21.587786,55.969467,7.564886
-0.044434,1.219727,1.984314,28.557251,44.885498,1.633588
0.099854,1.291992,1.984314,32.595421,34.702290,4.083970
0.235352,1.301270,1.984314,31.923664,22.580153,12.809160
0.353027,1.210205,1.984314,23.549618,8.908397,26.900763
0.399414,1.068604,1.331543,7.351145,-3.343511,48.152672
0.338379,0.873535,0.766846,1.526718,-2.656489,73.671753
0.173584,0.884033,0.169678,12.198473,5.000000,95.526718
-0.058838,0.905518,-0.470215,22.160305,-12.267176,123.938934
-0.084473,1.063232,-1.295410,61.442749,-82.984734,161.656494
0.221436,1.528809,-1.948730,84.297707,-186.847336,178.832062
0.710693,1.821777,-2.000000,46.549618,-250.137405,194.618317
1.386230,1.674316,-2.000000,-83.564888,-250.137405,212.564880
1.984314,1.178223,-2.000000,-163.328247,-250.137405,176.549622
1.984314,0.617187,-2.000000,-186.625961,-250.137405,124.633591
1.984314,0.253418,-2.000000,-122.053436,-250.137405,63.931297
1.984314,-0.032471,-2.000000,-92.854965,-250.137405,8.412213
1.984314,-0.311279,-2.000000,-41.374046,-89.167938,-21.282442
1.984314,-0.468506,-2.000000,14.694656,248.175568,-17.824427
1.984314,-0.510498,-2.000000,49.343510,248.175568,-22.427481
1.984314,-0.520020,-2.000000,85.045799,248.175568,-54.221375
1.004150,-0.420166,-2.000000,128.793900,248.175568,-71.564888
0.077637,0.098633,-2.000000,141.229004,185.709930,-58.656490
-0.166260,0.647461,-2.000000,87.030533,13.473283,-43.251907
0.206787,0.533203,-2.000000,-29.175573,-186.816788,-39.862595
0.878418,-0.189941,-1.662354,-124.053436,-250.137405,-38.885498
1.403076,-0.774414,-1.022949,-134.358780,-213.595413,-43.931297
1.639160,-0.973633,-0.411865,-73.099236,-82.480919,-63.221375
1.550781,-0.830322,-0.140137,-21.435114,65.854965,-77.396950
1.984314,0.405762,-2.000000,-0.473282,138.862595,-85.702293
1.984314,0.407227,-2.000000,-15.244275,148.290070,-95.030533
1.984314,0.368408,-2.000000,-19.687023,118.877861,-77.625954
1.984314,0.313232,-2.000000,-31.190840,99.229004,-104.564888
1.881836,0.273926,-2.000000,-37.572517,101.854965,-126.832062
1.775635,0.131592,-2.000000,-26.511450,119.297707,-102.099236
1.653564,0.113525,-2.000000,-45.809162,132.206100,-113.190842
1.300049,-0.155029,-2.000000,-59.541985,129.442749,-112.473282
1.023193,-0.364502,-2.000000,-60.725189,120.358780,-82.076332
0.959229,-0.414062,-2.000000,-60.862595,119.679390,-32.938931
0.882568,-0.470215,-2.000000,-73.709923,106.595421,-36.549618
0.643066,-0.667725,-2.000000,-66.160309,115.862595,-34.000000
0.405518,-0.814209,-1.885254,-53.557251,131.396942,-15.938931
0.216309,-0.761719,-1.406738,-34.977100,142.946564,-22.564886
-0.126953,-0.762207,-0.947998,-39.709923,135.526718,-47.267174
-0.405273,-0.800781,-0.250244,-20.511450,119.587784,-13.045801
-0.417969,-0.576660,0.381104,-8.709924,114.938934,22.267176
-0.512207,-0.443604,1.133789,-18.465649,101.160309,-13.709924
-0.730469,-0.484619,1.834717,-22.351145,81.045799,-9.564885
-0.765625,-0.367188,1.984314,-7.305344,69.465652,4.251908
-0.768555,-0.207275,1.984314,3.145038,76.511452,8.832061
-0.765381,0.038574,1.984314,18.923664,77.175575,9.709924
-0.778320,0.302490,1.984314,41.091602,72.564888,6.312977
-0.780762,0.564697,1.984314,52.198475,60.244274,6.389313
-0.740967,0.795410,1.984314,54.328243,39.190838,6.717557
-0.627930,0.975098,1.984314,50.290077,14.549619,18.320610
-0.406982,1.168457,1.984314,47.320610,-7.152672,27.725191
-0.153564,1.342285,1.984314,45.229008,-23.290077,26.114504
0.082275,1.481445,1.984314,45.274811,-35.083969,18.496183
0.288086,1.582764,1.984314,44.641220,-46.053436,5.969466
0.471924,1.642578,1.984314,49.251907,-41.381680,-1.496183
0.659180,1.693604,1.984314,49.717556,-55.687023,-8.412213
0.850342,1.696533,1.617676,46.221375,-68.656487,-11.129771
1.068359,1.661621,0.966309,39.595421,-78.648857,-8.519084
1.275635,1.587158,0.246094,26.312977,-84.587784,-6.763359
1.433838,1.422119,-0.480469,14.190840,-87.160309,-6.045802
1.557617,1.211182,-1.189453,2.671756,-85.671753,-5.603054
1.638428,0.952148,-1.929199,-8.740458,-83.969467,-3.358779
1.662354,0.668457,-2.000000,-18.519083,-73.854965,-0.251908
1.552734,0.286133,-2.000000,-24.549618,-59.229008,10.358779
1.352051,-0.111328,-2.000000,-21.335878,-53.603054,34.305344
1.122070,-0.411865,-2.000000,-16.992367,-34.832062,50.587788
0.786377,-0.541992,-2.000000,-13.328244,-16.412214,60.709923
0.323486,-0.540039,-2.000000,-36.190838,-16.816793,88.564888
-0.111572,-0.629883,-2.000000,-16.656488,-37.534351,117.900764
-0.408691,-0.670898,-2.000000,-19.534351,-80.763359,147.259537
-0.525879,-0.672363,-2.000000,-77.038170,-185.206100,187.480911
-0.119141,-0.593994,-2.000000,-125.114502,-250.137405,220.244278
0.915527,-0.077881,-1.295166,-127.946564,-250.137405,204.114502
1.984314,0.452393,-0.052734,-72.618324,-250.137405,101.740456
1.984314,0.366699,0.362549,0.862595,-250.137405,19.664122
1.984314,-0.295654,0.261963,-107.244278,-250.137405,248.175568
1.984314,0.622803,0.800049,-154.129776,147.832062,167.648849
1.984314,-1.266113,0.193359,-88.122139,248.175568,-125.580154
1.737061,-1.240723,0.131348,3.625954,248.175568,-119.129768
0.786621,-0.498779,0.279297,85.786263,248.175568,-81.244278
-0.037598,-0.140625,0.465332,66.595421,248.175568,-82.267174
-0.614990,0.017578,0.885498,36.274811,202.236649,-93.755722
-0.755859,0.062500,1.234619,15.496183,75.366409,-78.526718
-0.420898,0.020996,1.744141,-23.908398,4.641222,-40.366413
0.106445,-0.012695,1.984314,-62.564884,-15.809160,-21.374046
0.495605,0.060059,1.984314,-58.854961,35.068703,-32.328243
0.608887,0.173828,1.984314,-39.824429,104.580154,-61.900764
0.374512,0.237061,1.984314,-43.984734,144.694656,-88.977097
0.210205,0.259277,1.984314,-32.496181,160.160309,-67.091606
0.156494,0.313965,1.984314,-32.786259,158.908401,-81.580154
0.044922,0.233154,1.984314,-12.534351,178.648849,-71.053436
0.093994,0.475586,1.984314,23.320610,212.816788,-123.969467
-0.379639,0.543213,1.984314,17.236641,225.809158,-162.648849
-0.614990,0.597168,1.984314,47.595421,230.122131,-104.320610
-0.746826,0.770264,1.984314,10.824428,209.557251,-116.748093
-0.825928,0.715820,1.984314,14.251908,202.519089,-46.618320
-0.695557,0.952393,1.984314,-4.595420,191.358780,-41.083969
-0.709473,0.865723,1.984314,-11.541985,157.671753,-38.992367
-0.617432,0.873291,1.984314,10.312977,137.374039,-24.671755
-0.366943,1.032471,1.984314,44.282444,111.305344,-6.549618
0.068115,1.483643,1.984314,66.992363,68.206108,-41.038166
0.337402,1.650879,1.984314,76.519081,26.671755,-79.183205
0.516846,1.544922,1.371094,71.847328,10.717557,-65.045799
0.732178,1.396729,0.690918,53.274811,12.129771,-40.755726
-1.012451,0.494629,1.984314,40.030533,24.328245,-11.816793
-0.811035,0.906738,1.984314,36.396946,-0.114504,14.763359
-0.600342,1.137939,1.984314,45.083969,-34.824429,-1.786260
-0.366455,1.271729,1.984314,40.916031,-67.251907,-17.610687
-0.107666,1.397705,1.984314,43.770992,-85.503815,-28.564886
0.124268,1.497559,1.984314,39.511452,-92.954201,-36.648853
0.332520,1.575928,1.984314,41.770992,-91.427483,-26.725191
0.549561,1.672119,1.984314,27.152672,-86.511452,-17.099237
0.739990,1.737793,1.599609,17.839695,-86.152672,-14.114504
0.919434,1.717773,0.926514,5.328244,-89.564888,-10.969465
1.121094,1.678955,0.245117,4.816794,-95.099236,-9.213740
1.318604,1.604492,-0.436279,-7.251908,-100.015266,-10.167939
1.499756,1.495117,-1.046143,-19.335878,-97.045799,-9.022901
1.625977,1.362549,-1.630371,-33.061069,-86.290077,-8.748092
1.683105,1.191650,-2.000000,-43.389313,-74.572517,-7.984733
1.697266,0.991943,-2.000000,-51.816795,-63.557251,-3.809160
1.681396,0.779785,-2.000000,-59.931297,-51.847328,-1.763359
1.634521,0.561279,-2.000000,-63.870228,-40.389313,-0.076336
1.567627,0.317383,-2.000000,-66.015266,-28.519083,2.076336
1.454590,0.057617,-2.000000,-73.977097,-12.229008,10.732824
1.311035,-0.172607,-2.000000,-74.770996,-15.389313,14.595420
1.095703,-0.447998,-2.000000,-88.717560,-0.541985,28.068703
0.814209,-0.753418,-2.000000,-97.839691,25.053434,52.511452
0.474854,-0.910400,-2.000000,-76.038170,48.045803,72.854965
0.069092,-1.050781,-2.000000,-61.534351,72.412216,92.091606
-0.453857,-1.205078,-2.000000,-75.511452,88.412216,113.671753
-0.910400,-1.202881,-1.464111,-48.786259,81.786263,146.404587
-1.210205,-1.012207,-1.015869,8.129771,32.229008,168.076340
-1.341797,-0.585937,-0.506836,36.000000,-22.732824,180.206100
-1.297607,-0.203125,-0.292725,-12.206107,-128.022903,186.770996
-0.950439,-0.187744,0.733643,-116.748093,-250.137405,187.030533
0.003418,0.167969,1.984314,-159.206100,-250.137405,183.832062
1.702881,0.551758,1.984314,-90.908394,-250.137405,75.885498
1.984314,0.600098,1.984314,-27.427481,-250.137405,45.061069
1.984314,0.457520,1.984314,-44.145039,-250.137405,16.847328
1.984314,0.572510,1.984314,-33.946564,61.893131,84.427483
1.984314,0.350342,1.984314,10.603053,248.175568,27.740458
1.120850,0.328613,1.984314,56.267174,248.175568,6.412214
-0.204590,0.413086,1.984314,91.549622,248.175568,-9.229008
-1.243652,0.690430,1.984314,91.442749,248.175568,-17.465649
-1.315918,1.166016,1.984314,82.297707,76.961830,-25.274809
-0.627197,1.502197,1.984314,60.946564,-67.442749,-40.763359
0.353760,1.481934,1.984314,26.893129,-117.236641,-54.694656
0.983154,1.423096,1.984314,25.656488,-42.870228,-69.442749
1.076660,1.389709,-0.000061,-0.007634,-0.007634,-0.007634
0.906250,1.342041,1.984314,53.824429,162.267181,-76.351143
0.767822,1.434814,1.984314,84.213737,176.274811,-106.145035
0.397461,1.431641,1.984314,97.328247,149.244278,-124.656487
0.430420,1.657471,1.984314,123.984734,126.534348,-105.839691
0.430176,1.799561,1.984314,101.541985,120.053436,-110.656487
0.532959,1.874756,1.984314,91.152672,134.068695,-124.709923
0.433105,1.915283,1.984314,45.244274,102.496185,-188.320618
0.207275,1.596191,1.984314,43.236641,87.435112,-156.923660
0.287842,1.627441,1.984314,17.412214,58.664124,-136.854965
0.327881,1.402100,1.816162,4.061069,47.396946,-48.007633
0.663086,1.445068,1.226563,-8.450381,37.839695,-45.946564
0.722168,1.169434,0.674561,-8.908397,21.488550,-55.015266
0.802002,0.960449,0.035400,11.671756,5.320611,-45.274811
0.909180,0.982666,-0.669434,26.106871,-16.770992,-62.381680
0.975830,0.902100,-1.314941,46.122139,-37.297710,-34.251907
1.145996,0.955811,-1.961182,57.664124,-49.297710,-44.106869
1.169678,0.822998,-2.000000,46.557251,-78.900764,-67.946564
1.172119,0.660889,-2.000000,26.748091,-107.366409,-69.954201
1.197510,0.510986,-2.000000,19.290077,-131.503815,-75.755722
1.284912,0.348145,-2.000000,0.053435,-134.709930,-29.030535
1.413574,0.269531,-2.000000,-10.847328,-119.893127,-19.244274
1.327393,0.062256,-2.000000,-26.160305,-97.061066,-13.137404
1.174561,-0.129883,-2.000000,-29.473282,-72.251907,-3.396947
0.965332,-0.249268,-2.000000,-28.488550,-55.618320,1.083969
0.756348,-0.316162,-2.000000,-31.954199,-39.664124,7.885496
0.583008,-0.343750,-1.992920,-31.877863,-41.610687,7.641222
0.401611,-0.379883,-1.374512,-42.488548,-23.015266,6.244275
0.193604,-0.395264,-0.692871,-53.221375,-1.312977,2.648855
-0.042480,-0.391357,0.038574,-59.458015,20.946566,2.427481
-0.264893,-0.319824,0.837646,-61.015266,41.961834,3.961832
-0.460205,-0.226562,1.609619,-57.595421,59.954197,7.083970
-0.611084,-0.097656,1.984314,-54.923664,75.427483,13.137404
-0.731201,0.081787,1.984314,-51.068703,89.045799,17.358778
-0.805908,0.265869,1.984314,-43.839695,96.755722,22.519083
-0.827393,0.480469,1.984314,-34.351147,99.519081,24.305344
0.209961,-0.505127,-1.005859,-35.778625,94.427483,23.190840
-0.028809,-0.531738,-0.243896,-25.778625,91.122139,24.526718
-0.234863,-0.500732,0.535889,-15.122137,88.297707,24.282442
-0.449707,-0.471924,1.246582,-4.129771,81.687019,21.847328
-0.707764,-0.542480,1.835938,-0.122137,71.061066,29.977098
-0.927979,-0.581299,1.984314,4.755725,60.488548,53.190838
-1.102295,-0.504883,1.984314,24.091602,50.427483,76.656487
-1.158447,-0.238281,1.984314,64.419846,32.427483,96.022903
-1.205322,-0.019287,1.984314,81.412216,5.145038,96.938934
-1.287354,0.117920,1.984314,64.595421,-19.488550,96.160309
-1.429932,0.290039,1.984314,44.778625,-27.610687,109.847328
-1.479980,0.675293,1.984314,97.633591,-79.083969,120.351143
-1.489746,1.120361,1.984314,124.213737,-126.099236,138.503815
-1.214600,1.403809,1.984314,92.717560,-250.137405,192.687027
-0.324707,1.776611,1.984314,-19.847328,-250.137405,229.854965
1.236816,1.984314,1.984314,-39.664124,-250.137405,170.839691
1.984314,1.984314,1.984314,-12.862596,-250.137405,88.618324
1.984314,1.984314,1.728027,-21.801527,-250.137405,134.114502
1.984314,1.984314,1.583496,-66.671753,-250.137405,167.801529
1.984314,1.707764,0.917969,-54.229008,-120.473282,61.312977
1.984314,1.649902,0.152100,15.030535,188.106873,-112.244278
1.984314,1.825439,-0.776855,101.778625,248.175568,-150.458008
1.984314,1.735352,-1.370361,114.175575,248.175568,-114.045799
1.454590,1.503662,-1.618164,108.061066,248.175568,-79.267174
0.837891,1.683105,-2.000000,111.427483,145.137405,-57.213741
0.816650,1.984314,-2.000000,89.190842,-35.381680,-45.312977
1.314941,1.984314,-2.000000,14.732824,-198.198471,-44.885498
1.984314,1.511475,-2.000000,-61.251907,-250.137405,-42.709923
1.984314,1.013672,-2.000000,-84.152672,-224.251907,-43.557251
1.984314,0.752441,-2.000000,-77.877861,-112.297707,-54.030533
1.984314,0.530273,-2.000000,-92.152672,-9.106871,-78.061066
1.984314,0.275146,-2.000000,-93.229004,59.984734,-78.496185
1.984314,0.185059,-2.000000,-88.709923,83.923668,-97.709923
1.882324,0.155273,-2.000000,-66.335876,77.854965,-108.251907
1.697998,0.191406,-2.000000,-51.992367,76.992363,-129.938934
1.579102,0.148193,-2.000000,-56.099236,92.358780,-114.312981
1.538330,0.114990,-2.000000,-60.748093,114.190842,-137.503815
1.154053,-0.038818,-2.000000,-83.022903,128.832062,-197.648849
0.624023,-0.626709,-2.000000,-83.229004,144.816788,-118.778625
0.414307,-0.649902,-2.000000,-133.328247,122.679390,-33.427483
0.218750,-0.653076,-1.560791,-147.145035,132.717560,-13.900764
-0.043457,-0.714844,-0.834717,-155.190842,137.061066,-32.908398
-0.394775,-0.931152,-0.061035,-141.129776,140.969467,-27.679390
-0.547119,-0.792725,0.050293,-143.748093,122.229004,3.984733
-0.640137,-0.584961,1.297852,-121.007637,129.259537,6.190840
-0.884033,-0.420166,1.803711,-97.442749,124.801529,-13.045801
-1.083740,-0.264648,1.984314,-83.396950,118.580154,-1.709924
-1.167480,-0.121826,1.984314,-77.763359,99.183205,7.847328
-0.722656,0.756592,1.984314,-77.206108,65.320610,-13.190840
-0.431152,-0.661133,0.941162,-117.526718,49.832062,-5.778626
-0.510498,-0.338379,1.839600,-106.549622,68.847328,28.961832
-0.584717,-0.095703,1.984314,-93.702293,85.938934,38.358780
-0.729248,0.025635,1.984314,-92.770996,104.282440,32.717556
-0.891602,0.197266,1.984314,-69.961830,114.083969,34.007633
-0.937744,0.491211,1.984314,-54.687023,102.687019,40.274811
-0.768555,0.866699,1.984314,-45.160305,86.320610,32.885498
-0.502441,1.096924,1.984314,-49.793892,65.656487,24.755726
-0.192627,1.268066,1.984314,-47.106869,56.297710,20.839695
0.070068,1.487305,1.984314,-40.687023,47.458015,12.358779
0.300049,1.683350,1.984314,-59.274811,56.129772,17.129770
0.550781,1.779053,1.984314,-81.068703,33.022900,15.824428
0.787109,1.908203,1.664551,-124.717560,4.984733,9.847328
0.981201,1.881348,0.827881,-150.137405,-27.404581,-4.351145
1.222168,1.391113,-0.320313,-174.885498,-65.748093,-0.259542
1.475830,0.687744,-1.488525,-183.572525,-87.793892,4.374046
1.585938,0.083008,-2.000000,-150.908401,-101.503815,4.480916
1.522705,-0.364258,-2.000000,-100.511452,-91.450378,13.404580
1.267334,-0.744629,-2.000000,-65.580154,-80.648857,22.183207
0.925781,-1.137451,-2.000000,-31.328245,-88.328247,38.091602
0.661133,-1.292969,-2.000000,8.038168,-123.030533,54.908398
0.503174,-1.246582,-2.000000,27.893129,-155.000000,58.755726
0.358643,-1.242188,-2.000000,50.870228,-192.503815,51.251907
0.291748,-0.997803,-2.000000,102.358780,-221.312973,40.122139
0.331055,-0.724365,-2.000000,179.061066,-218.244278,13.541985
0.372070,-0.197266,-2.000000,203.183212,-214.312973,-9.954199
0.240234,-0.002930,-1.924561,141.213745,-176.229004,21.244274
0.054687,0.124268,-1.744873,18.244274,-181.213745,76.106873
0.184082,0.343506,-0.627197,13.603053,-152.786255,112.114502
0.389160,-0.100830,-0.020996,3.511450,-194.839691,130.793900
1.984314,0.792480,-2.000000,-66.206108,-190.274811,133.977097
1.984314,0.269043,-2.000000,-147.259537,-149.564880,110.290077
1.984314,-0.365967,-2.000000,-163.068695,-140.870224,81.198471
1.984314,-0.857666,-1.969971,-135.473282,-100.198471,59.297710
1.984314,-0.932129,-1.746338,-90.885498,-16.778625,44.419846
1.984314,-0.778564,-1.728271,-44.687023,77.793892,21.847328
1.984314,-0.604004,-1.640381,-22.877863,181.145035,-11.183207
1.766602,-0.616699,-1.371094,-11.580153,244.687027,-40.549618
0.941162,-0.658691,-0.729492,9.480916,248.175568,-54.175571
0.214355,-0.595459,-0.033936,34.862595,240.389313,-46.152672
-0.119629,-0.418213,0.737549,37.114502,166.519089,-16.473282
-0.077637,-0.206787,1.416016,28.045801,111.320610,-8.244275
-0.006836,-0.082764,1.984314,4.358778,77.717560,-20.694656
0.011230,-0.025879,1.984314,-0.961832,76.022903,-21.343512
0.004150,0.154297,1.984314,11.610687,98.282440,-14.213740
-0.031006,0.427979,1.984314,26.541985,113.389313,-8.511451
-0.055176,0.726074,1.984314,38.961834,105.450378,-14.541985
-0.022217,0.961914,1.984314,45.732826,-0.007634,-0.007634
0.116211,1.179688,1.984314,53.465649,58.396946,-36.801525
0.348633,1.368896,1.984314,64.343513,55.053436,-51.083969
0.580811,1.504395,1.984314,76.061066,41.137405,-72.480919
0.780273,1.584473,1.984314,84.503815,32.671757,-89.687019
0.943359,1.659668,1.984314,86.572517,23.954199,-99.221375
1.122559,1.746582,1.513672,78.877861,12.954199,-112.847328
1.167969,1.625488,0.554932,43.770992,-9.435115,-114.167938
1.307861,1.515137,-0.423828,-3.610687,-23.290077,-81.412216
1.461914,1.231201,-1.394775,-49.442749,-26.381680,-56.725189
1.533936,0.811768,-2.000000,-83.106873,-25.526718,-47.923664
1.509277,0.329590,-2.000000,-102.809158,-20.977098,-34.664124
1.450439,-0.112305,-2.000000,-101.167938,-19.328245,-18.832062
1.311523,-0.492920,-2.000000,-107.549622,3.801527,-19.618320
0.998291,-0.805420,-2.000000,-106.427483,31.045801,-26.770992
0.576904,-0.976318,-2.000000,-97.183205,61.480915,-22.183207
0.121826,-1.018555,-1.456787,-84.511452,84.717560,-14.297709
-0.272949,-0.952148,-0.389893,-72.801529,95.755722,-6.129771
-0.575439,-0.827637,0.744629,-64.282440,97.938934,-0.801527
-0.762939,-0.594971,1.906738,-48.839695,99.351143,3.312977
-0.882568,-0.293945,1.984314,-23.824427,96.068703,0.175573
-0.932861,0.060547,1.984314,-3.244275,91.312981,2.687023
-0.874268,0.456055,1.984314,18.442749,88.755722,0.335878
-0.714844,0.957275,1.984314,34.786259,72.954201,8.793893
-0.446045,1.415283,1.984314,41.564884,50.633587,3.534351
-0.152588,1.602051,1.984314,33.961834,17.198473,-5.526718
0.191650,1.668945,1.984314,28.961832,-13.839695,-9.442748
0.598389,1.716309,1.984314,31.618320,-38.625954,-9.320611
1.002686,1.723877,1.648926,34.541985,-56.045803,-13.610687
1.330322,1.576172,0.706787,27.358778,-68.274811,-17.641222
1.568604,1.365723,-0.332764,17.061069,-75.259544,-20.580153
1.707764,1.077881,-1.299561,12.671756,-79.358780,-21.183207
1.772217,0.775391,-2.000000,13.305344,-77.938934,-16.412214
1.747070,0.404541,-2.000000,2.671756,-76.664124,-12.732824
1.646973,0.027100,-2.000000,-6.450382,-69.030533,-8.977099
1.438232,-0.361572,-2.000000,-19.786259,-52.251907,-5.931298
1.098877,-0.716309,-2.000000,-35.389313,-30.519083,1.519084
0.677979,-0.966309,-2.000000,-43.083969,-8.480916,14.801527
0.250244,-1.144287,-1.987793,-41.488548,8.404580,32.221375
-0.196533,-1.206543,-1.362061,-38.282444,27.664122,50.977100
-0.654297,-1.223633,-0.397461,-21.145039,49.725189,73.435112
-1.063477,-1.076660,0.634033,17.152672,56.076336,91.908394
-1.437500,-0.777832,1.269531,31.847328,42.175571,103.198471
-1.866943,-0.532471,1.911377,20.374046,43.595421,128.351151
-2.000000,-0.165527,1.984314,29.152672,26.091602,157.389313
-2.000000,0.397461,1.984314,55.755726,-16.977098,179.801529
-2.000000,0.963379,1.984314,43.656490,-102.511452,201.580154
-1.552979,1.551025,1.984314,-8.557252,-250.137405,214.183212
0.027832,1.984314,1.984314,33.274811,-250.137405,175.290070
1.916992,1.984314,1.984314,7.290076,-250.137405,116.213737
1.984314,1.984314,1.984314,-72.709923,-250.137405,95.488548
1.984314,1.590088,1.984314,-168.167938,-250.137405,70.404579
1.984314,-1.127686,1.479492,-171.503815,-250.137405,24.679390
1.984314,-0.665283,1.576904,-95.786263,25.083969,143.496185
1.984314,0.773437,0.605225,134.984726,248.175568,-29.778625
1.984314,1.556885,-0.671387,225.045807,248.175568,-85.183205
1.984314,1.522705,-1.513916,140.389313,248.175568,-52.145039
1.425293,1.015137,-1.861328,63.022900,248.175568,-36.427483
0.851074,0.701172,-2.000000,72.099236,91.511452,-24.854961
0.965332,0.728271,-2.000000,87.206108,-110.534348,-30.450382
1.587158,0.645508,-2.000000,61.931297,-250.137405,-56.435116
1.984314,0.319336,-2.000000,7.442748,-250.137405,-68.702293
1.984314,1.589844,1.025391,-24.541985,-214.259537,-54.160305
1.984314,1.253174,0.209473,-27.366413,-131.343506,-36.832062
1.984314,1.043701,-0.563477,-5.351145,-25.854961,-41.335876
1.984314,0.848877,-1.358398,12.404580,63.106869,-60.534351
1.984314,0.718018,-2.000000,22.015266,113.190842,-106.671753
1.984314,0.455566,-2.000000,26.977098,132.603058,-97.740456
1.984314,0.397217,-2.000000,20.687023,148.778625,-111.557251
1.984314,0.185547,-2.000000,10.091603,167.687027,-104.923668
1.890137,0.077637,-2.000000,-1.091603,204.732819,-88.297707
1.483398,0.002686,-2.000000,-24.198473,227.732819,-102.473282
0.902344,-0.198975,-2.000000,-69.503815,213.862595,-116.320610
0.301025,-0.479980,-2.000000,-102.190842,202.954193,-103.061066
-0.187744,-0.705811,-1.110840,-118.488548,188.465652,-70.221375
-0.491699,-0.712891,0.015869,-112.473282,177.076340,-35.419846
-0.664062,-0.587891,1.271484,-92.122139,161.007629,-30.969465
-0.783447,-0.334473,1.984314,-67.717560,150.610687,-38.427483
-0.895264,-0.036133,1.984314,-34.106869,142.366409,-51.236641
-1.048584,0.224365,1.984314,-6.839694,126.603050,-50.740459
-1.041748,0.595459,1.984314,14.916031,96.129768,-35.045803
-0.898437,0.882080,1.984314,23.885496,45.496181,-33.328243
-0.609131,1.053955,1.984314,18.465649,5.763359,-31.083969
-0.156982,1.245850,1.984314,26.312977,-46.900764,-33.770992
0.383057,1.441650,1.984314,34.847328,-89.954201,-42.755726
0.867432,1.534180,1.205322,37.549618,-108.183205,-54.770992
1.240479,1.486084,0.260986,30.274809,-103.465652,-50.503819
1.433105,1.231201,-0.822998,24.114504,-88.290077,-51.076336
1.510010,0.906982,-1.785400,-1.076336,-78.427483,-39.656490
1.556396,0.616943,-2.000000,-23.145039,-64.618324,-20.061069
1.535156,0.248779,-2.000000,-43.885498,-51.519085,-8.328244
1.422607,-0.169678,-2.000000,-65.419846,-32.282444,0.419847
1.206787,-0.558350,-2.000000,-72.954201,-26.229008,8.320611
0.917725,-0.811035,-2.000000,-77.419846,4.839694,18.038168
0.552734,-0.979248,-1.849365,-74.358780,35.946564,25.641222
0.184326,-1.025391,-0.957764,-60.244274,63.610687,33.374046
-0.149902,-0.936768,0.036621,-43.725189,88.290077,37.053436
-0.456299,-0.781738,1.049072,-26.229008,106.961830,38.328243
-0.723633,-0.583740,1.977051,-4.664122,113.137405,38.916031
-0.933350,-0.321777,1.984314,0.740458,105.175575,39.244274
-1.009277,-0.043457,1.984314,29.083969,81.473282,35.984734
-0.945801,0.286377,1.984314,59.114502,59.450382,46.114502
-0.877441,0.503662,1.984314,68.572517,60.977100,59.977100
-0.921875,0.619873,1.984314,85.167938,45.000000,73.832062
-0.983398,0.743164,1.984314,96.007637,16.862595,106.839691
-0.988525,0.902588,1.984314,97.465652,-26.343512,133.335876
-0.920166,1.145264,1.526123,72.633591,-90.870232,140.374039
-0.700439,1.394043,0.844238,51.603054,-183.732819,173.175568
-0.317627,1.693359,0.395996,28.473282,-250.137405,200.328247
0.717773,1.984314,0.046875,83.480919,-250.137405,153.152664
1.781982,1.984314,-0.403076,68.694656,-250.137405,65.129768
1.984314,1.984314,-0.476074,-30.648855,-250.137405,60.465649
1.984314,1.445801,-0.598145,-97.267174,-250.137405,54.625954
1.984314,-0.133057,-1.324951,-151.549622,-250.137405,46.198475
1.984314,-0.963867,-1.561035,-84.328247,-250.137405,18.274809
1.984314,0.016602,-1.863281,61.763359,-0.007634,-0.007634
1.984314,0.798584,-2.000000,88.732826,248.175568,-55.068703
1.984314,0.460205,-2.000000,-21.335878,248.175568,-79.671753
1.826660,-0.546387,-2.000000,-98.702293,248.175568,-86.908394
0.519043,-1.259033,-2.000000,-58.725189,248.175568,-51.954197
-0.269775,-1.173828,-2.000000,15.740458,186.801529,-9.595420
-0.320313,-0.642578,-1.686768,30.931297,-12.358779,-13.847328
0.072510,-0.370850,-0.610840,-16.809160,-163.244278,-48.045803
0.487793,-0.474121,0.414795,-69.694656,-159.236649,-55.267174
0.696289,-0.634277,1.298828,-73.442749,-73.900764,-34.442749
0.704590,-0.615234,1.984314,-42.763359,43.519085,-11.053435
0.618164,-0.376709,1.984314,-7.801527,151.419846,-7.396946
0.386475,-0.091797,1.984314,23.068703,218.961838,-20.648855
0.140137,0.327393,1.984314,53.992367,243.427475,-41.137405
-0.020264,0.725830,1.984314,67.419846,242.030533,-63.748093
-0.070068,1.061035,1.984314,66.473282,238.427475,-83.519081
-0.002197,1.321777,1.984314,75.351143,228.877869,-115.374046
-0.058350,1.493408,1.984314,51.030533,212.748093,-156.572525
-0.092041,1.604248,1.984314,38.030533,197.030533,-97.793892
0.236816,1.824707,1.984314,1.625954,160.877869,-38.175571
0.657471,1.847656,1.641846,-41.160305,97.190842,-52.603054
0.975830,1.585205,0.707520,-59.977100,36.404579,-95.259544
1.178223,1.135254,-0.268555,-51.114502,-5.175572,-87.648857
1.438965,0.850342,-1.301270,-26.503817,-16.931297,-58.732826
1.598389,0.571777,-2.000000,-9.488549,-20.190840,-53.610687
1.499756,0.181396,-2.000000,-1.488550,-26.992367,-59.916031
1.317871,-0.150391,-2.000000,2.282443,-26.564886,-44.175571
0.989014,1.487061,0.300293,-1.625954,-31.091602,-39.770992
1.197754,1.254150,-0.864014,-22.419847,-37.167938,-49.992367
1.316895,0.882324,-1.865723,-42.320610,-34.832062,-46.259541
1.406738,0.495850,-2.000000,-56.419846,-19.770992,-34.480915
1.380371,0.022217,-2.000000,-68.603050,0.648855,-28.152672
1.241699,-0.424805,-2.000000,-72.839691,31.618320,-19.870230
0.952881,-0.789307,-2.000000,-61.259541,58.389313,-16.625954
0.588623,-0.980225,-2.000000,-41.320610,83.381676,-5.221374
0.210937,-1.009277,-1.421143,-18.885496,107.259544,6.236641
-0.192871,-0.872070,-0.406982,-6.259542,121.435112,16.129770
-0.557129,-0.707764,0.722900,-4.122138,118.984734,21.809160
-0.830078,-0.485596,1.876221,-1.083969,102.824425,25.076336
-0.964355,-0.180664,1.984314,7.809160,81.297707,29.015266
-0.947266,0.178955,1.984314,19.603054,57.106869,29.954199
-0.810303,0.592529,1.984314,33.893131,34.198475,24.977098
-0.602539,0.994385,1.984314,51.473282,7.625954,16.366413
-0.332764,1.292969,1.984314,63.931297,-23.977098,12.022901
0.030273,1.504883,1.984314,67.885498,-54.030533,10.954199
0.419189,1.624512,1.984314,56.381680,-80.961830,0.473282
0.725342,1.570801,1.336914,32.977100,-105.114502,-4.946565
1.024170,1.337158,0.302002,29.244274,-115.496185,4.778626
1.322754,1.109131,-0.709717,21.053434,-123.679390,13.022901
1.564209,0.877441,-1.719727,23.541985,-122.839691,6.946565
1.633545,0.556396,-2.000000,3.946565,-111.534348,10.671756
1.551514,0.134521,-2.000000,-3.916031,-86.335876,19.664122
1.287109,-0.381104,-2.000000,-18.984734,-61.465649,44.305344
0.895996,-0.696777,-2.000000,-32.488548,-27.206106,67.229004
0.461426,-0.604980,-2.000000,-33.610687,-10.312977,86.671753
0.077637,-0.535156,-2.000000,-68.473282,-33.106869,105.526718
-0.186035,-0.764404,-2.000000,-88.534348,-35.152672,133.778625
-0.508057,-0.970459,-1.092773,-86.114502,-32.816795,136.961838
-0.842041,-0.842041,0.151855,-50.564884,-21.221375,137.549622
-0.945801,-0.304199,1.361816,-17.419847,-58.312977,135.030533
-0.748291,0.271484,1.984314,-12.129771,-137.396942,126.282440
-0.222412,0.552246,1.984314,-33.618320,-215.564880,114.404579
0.538330,0.683594,1.984314,-47.068703,-250.137405,107.427483
1.465576,0.575195,1.984314,-40.496181,-250.137405,89.381676
1.984314,0.377930,1.984314,-16.801527,-226.450378,60.465649
1.984314,0.652100,1.984314,45.847328,-61.938931,32.694656
1.984314,1.341309,1.984314,103.603050,58.419846,33.335876
1.772217,1.909668,1.984314,87.809158,163.122131,1.984733
1.292236,1.850586,1.984314,61.473282,178.938934,-26.274809
1.025879,1.577148,1.984314,59.503819,125.511452,-31.908398
0.973877,1.512451,1.766602,71.137405,30.198473,-33.870228
1.238525,1.530762,1.225586,64.129768,-76.480919,-41.000000
1.741699,1.483154,0.682129,43.854961,-148.519089,-49.335876
1.984314,1.371338,0.082520,28.114504,-162.404587,-52.435116
1.984314,1.235107,-0.578125,16.694656,-133.610687,-52.717556
1.984314,1.065918,-1.278809,7.488550,-87.076332,-50.610687
1.984314,0.878418,-1.942627,0.213740,-44.526718,-50.854961
1.984314,0.645508,-2.000000,3.656489,-16.030535,-54.679390
1.984314,0.380127,-2.000000,-4.297710,3.251908,-58.641220
1.984314,0.033203,-2.000000,-13.595420,17.725191,-63.366413
1.984314,-0.332031,-2.000000,-12.480916,42.282444,-68.427483
1.756104,-0.588623,-2.000000,3.732824,75.511452,-77.412216
1.375977,-0.646240,-2.000000,22.778625,124.633591,-89.770996
0.901367,-0.616943,-1.704346,32.290077,170.229004,-97.786263
0.413330,-0.582031,-1.055664,25.450382,195.083969,-98.633591
-0.015625,-0.514404,-0.226562,12.816793,203.274811,-97.427483
-0.431885,-0.386719,0.548340,-17.870230,191.931305,-113.229004
-0.756348,-0.249512,1.480957,-61.580154,171.534348,-88.183205
-0.906006,-0.013916,1.984314,-80.824425,169.664124,-68.625954
-0.972656,0.181885,1.984314,-83.076332,171.541992,-57.633587
-0.978271,0.394775,1.984314,-77.877861,175.916031,-40.404579
-0.853516,0.721680,1.984314,-62.122139,170.015274,-39.702290
-0.748779,0.907959,1.984314,-44.541985,149.000000,-29.870230
-0.424561,1.218018,1.984314,-24.641222,126.251907,-9.908397
-0.072021,1.378662,1.984314,-14.679389,89.793892,-14.335877
0.279297,1.443848,1.984314,3.488550,47.381680,-30.030535
0.599121,1.434814,1.305908,23.641222,8.503817,-35.267174
0.922607,1.364258,0.312744,41.664124,-6.206107,-34.351147
1.191162,1.210205,-0.743408,49.549618,-37.206108,-39.625954
1.374512,0.930176,-1.706055,48.717556,-64.167938,-43.396946
1.470215,0.571777,-2.000000,40.916031,-84.595421,-45.618320
1.451172,0.188232,-2.000000,22.305344,-94.679390,-40.419846
1.353516,-0.152100,-2.000000,7.106870,-89.763359,-30.519083
1.137451,-0.486572,-2.000000,-12.244275,-78.396950,-23.641222
0.811279,-0.717529,-2.000000,-32.755726,-58.862595,-12.854961
0.405029,-0.940430,-2.000000,-47.221375,-43.580154,-7.671756
0.041504,-0.888672,-1.229492,-71.778625,-14.816793,9.916031
1.491699,0.128662,-2.000000,-68.526718,-8.412213,20.442749
1.352295,-0.321777,-2.000000,-75.106873,19.984734,26.106871
1.063477,-0.670166,-2.000000,-70.427483,49.603054,26.412214
0.675537,-0.877686,-2.000000,-59.435116,72.702293,33.610687
0.253662,-1.035400,-1.974854,-51.633587,85.427483,43.572517
-0.168945,-1.133057,-1.149658,-46.511452,89.442749,54.053436
-0.570068,-1.184570,-0.140869,-38.038166,85.343513,73.702293
-0.851074,-1.074707,0.889893,-2.679389,69.770996,77.122139
-1.112305,-0.807617,1.907959,17.244274,34.580154,79.374046
-1.302490,-0.500488,1.984314,65.335876,-1.526718,88.786263
-1.441406,-0.193359,1.984314,87.229004,-15.106871,100.755722
-1.606689,0.261719,1.984314,99.137405,-43.175571,110.129768
-1.748779,0.605957,1.984314,106.473282,-78.534348,123.366409
-1.694580,1.081055,1.984314,104.381676,-143.969467,157.244278
-1.329346,1.546387,1.984314,63.916031,-250.137405,185.709930
-0.137207,1.984314,1.984314,93.320610,-250.137405,158.305344
1.156982,1.984314,1.984314,75.717560,-250.137405,95.022903
1.984314,1.984314,1.984314,-42.106869,-250.137405,117.923668
1.984314,1.984314,1.984314,-88.396950,-250.137405,93.656487
1.984314,1.044922,0.883789,-141.847336,-250.137405,80.320610
1.984314,-0.139893,-0.101318,-114.381676,-250.137405,52.961834
1.984314,0.199219,-0.984375,12.099236,-12.656488,30.137405
1.984314,1.086914,-2.000000,80.244278,185.541992,-11.633588
1.984314,1.218018,-2.000000,44.213741,236.916031,-51.778625
1.984314,0.362793,-2.000000,-52.610687,248.175568,-78.557251
1.302734,-0.525879,-2.000000,-62.259541,248.175568,-48.076336
0.667969,-0.681396,-2.000000,-8.290076,156.129776,-4.366412
0.691162,-0.440918,-2.000000,4.358778,-22.076336,-4.396946
1.087402,-0.449951,-2.000000,-42.572517,-154.916031,-33.664124
1.428223,-0.737061,-1.750488,-81.160309,-156.916031,-38.389313
1.543945,-0.882568,-0.918701,-70.923668,-79.068703,-22.595419
1.369629,-0.811523,-0.150879,-43.343510,51.145039,-7.160306
0.983154,-0.616943,0.663086,-28.480917,159.213745,0.526718
0.529297,-0.381836,1.566162,-19.099237,207.183212,-1.832061
0.162842,-0.133301,1.984314,-2.587786,203.549622,-13.351145
-0.014160,0.096191,1.984314,19.725191,175.000000,-29.129770
-0.024658,0.345947,1.984314,52.221375,158.885498,-45.000000
0.096191,0.770508,1.984314,102.847328,165.351151,-62.938931
0.195068,1.212646,1.984314,139.763351,173.236649,-95.618324
0.272705,1.492188,1.984314,158.213745,178.259537,-102.206108
0.400146,1.765625,1.984314,161.190842,189.908401,-114.061066
0.513916,1.872559,1.984314,149.503815,161.671753,-121.564888
0.593018,1.868652,1.516846,109.236641,109.572517,-111.740456
0.831055,1.772949,0.270264,51.557251,59.160305,-67.137405
1.208252,1.530273,-0.911377,-9.244275,2.290076,-75.290077
1.361572,0.907715,-2.000000,-53.961834,-39.671757,-94.274811
1.465088,0.321777,-2.000000,-73.717560,-44.458015,-72.312981
1.466553,-0.109863,-2.000000,-79.038170,-14.816793,-53.641220
1.231445,-0.568115,-2.000000,-76.725189,18.938931,-53.702290
0.819580,-0.837646,-2.000000,-71.328247,57.152672,-38.251907
0.350342,-0.863525,-2.000000,-62.175571,73.007637,-28.923664
-0.171875,-0.890869,-1.025879,-62.625954,94.671753,-24.946566
-0.619629,-0.816162,0.286377,-48.053436,106.091606,-25.679390
-0.916504,-0.588135,1.706787,-25.236641,109.320610,-23.595419
-1.010742,-0.198486,1.984314,14.816793,111.297707,-26.160305
-0.923584,0.300781,1.984314,53.603054,111.000000,-29.923664
-0.741699,0.894043,1.984314,80.946564,112.320610,-37.625954
-0.523437,1.376465,1.984314,91.267174,103.961830,-40.564884
-0.264160,1.662598,1.984314,86.396950,76.435112,-43.664124
0.066162,1.754639,1.984314,70.572517,37.015266,-45.290077
0.460205,1.749512,1.984314,53.435116,14.702291,-39.427483
0.896729,1.616211,0.952637,40.465649,-25.038168,-35.480915
1.292969,1.385254,-0.205078,30.038168,-51.160305,-29.709923
1.549805,1.091309,-1.332275,21.656488,-64.557251,-27.656488
1.635010,0.711914,-2.000000,11.717557,-68.786263,-28.167938
1.557129,0.311035,-2.000000,4.175572,-65.519081,-27.106871
1.355469,-0.092041,-2.000000,-8.122137,-55.923664,-23.648855
1.029053,-0.435791,-2.000000,-28.068703,-31.045801,-18.961832
0.565918,-0.660156,-2.000000,-48.488548,0.366412,-9.015267
0.076172,-0.805664,-1.341553,-67.511452,32.290077,5.175572
-0.384521,-0.882080,-0.344482,-87.122139,39.442749,18.435114
-0.777588,-0.834473,0.851807,-105.496185,68.969467,37.603054
-1.109863,-0.630615,1.846436,-111.839691,89.351143,57.557251
-1.339355,-0.445312,1.984314,-118.404579,93.091606,80.053436
-1.366699,-0.120850,1.984314,-99.931297,89.160309,98.335876
-1.290527,0.274658,1.984314,-71.916031,59.083969,106.511452
-1.135986,0.531494,1.984314,-37.068703,9.770992,116.625954
-0.920410,0.706055,1.984314,-9.236641,-38.740459,132.435120
-0.680176,0.810059,1.832031,10.259542,-84.557251,137.541992
-0.387695,1.022217,0.932129,32.732826,-155.717560,130.328247
-1.666260,0.463867,1.984314,64.114502,-239.923660,115.694656
-1.066162,1.091553,1.984314,89.374046,-250.137405,123.633591
-0.191650,1.585205,1.984314,58.488548,-250.137405,132.564880
1.320068,1.984314,1.984314,143.961838,-250.137405,87.595421
1.984314,1.984314,1.984314,130.557251,-250.137405,99.839691
1.984314,1.984314,1.984314,-14.030535,-250.137405,118.717560
1.984314,1.984314,1.984314,-134.167938,-250.137405,81.572517
1.984314,0.247314,1.401611,-180.954193,-171.984726,38.931297
1.984314,0.307617,0.677490,-116.320610,21.625954,78.183205
1.984314,1.150635,-1.049072,48.694656,166.396942,-3.374046
1.984314,1.527100,-2.000000,84.236641,157.816788,-50.923664
1.984314,0.993164,-2.000000,-2.290076,140.007629,-63.557251
1.544678,0.175049,-2.000000,-59.396946,103.274811,-48.938931
1.294189,-0.197754,-2.000000,-33.938931,33.664124,-23.183207
1.396240,-0.286133,-2.000000,-10.000000,-40.152672,-21.847328
1.596680,-0.437256,-2.000000,-24.312977,-75.083969,-29.419847
1.679688,-0.612549,-2.000000,-48.137405,-51.366413,-21.832062
1.547119,-0.767578,-1.476074,-47.045803,13.297709,-8.099236
1.235840,-0.744141,-0.612793,-29.549618,86.511452,-1.679389
0.826660,-0.625977,0.367188,-16.923664,136.106873,-2.061069
0.439941,-0.449707,1.443848,4.053435,162.893127,-5.740458
0.146729,-0.218262,1.984314,30.572519,162.076340,-14.198473
0.002686,0.144043,1.984314,65.694656,154.351151,-31.702290
-0.037109,0.595703,1.984314,100.358780,146.213745,-57.404579
0.024170,1.047607,1.984314,130.603058,141.251907,-97.396950
0.054443,1.388428,1.984314,138.221375,128.236649,-117.931297
0.292480,1.743652,1.984314,145.526718,119.274811,-120.748093
0.525391,1.881104,1.984314,129.358780,109.854965,-130.793900
0.685303,1.860840,1.972412,82.648857,89.587784,-133.801529
0.800293,1.584961,0.747559,32.610687,78.000000,-95.687019
1.041748,1.315918,-0.408447,2.145038,41.442749,-86.061066
1.202393,0.961426,-1.560059,-9.702291,-3.381679,-99.923668
1.398193,0.664307,-2.000000,-8.702291,-29.053434,-91.824425
1.569092,0.401123,-2.000000,-11.412213,-19.534351,-83.687019
1.468506,-0.019287,-2.000000,-26.877863,27.076336,-81.923668
1.070313,-0.383057,-2.000000,-45.877861,93.473282,-69.282440
0.456055,-0.629395,-2.000000,-73.526718,144.083969,-54.022900
-0.193848,-0.840576,-1.586426,-85.099236,161.099243,-47.679390
-0.752197,-0.907715,-0.358643,-90.717560,148.488556,-30.137405
-1.034180,-0.682861,1.079346,-92.893127,122.923668,-10.488549
-1.100586,-0.284180,1.984314,-74.076332,108.137405,-11.549619
-1.041016,0.123779,1.984314,-47.137405,96.213737,-24.198473
-0.909912,0.552002,1.984314,-14.290076,90.961830,-33.381680
-0.708740,0.969971,1.984314,17.137405,85.702293,-34.412212
-0.437012,1.296631,1.984314,47.099236,67.679390,-31.412214
-0.084473,1.523926,1.984314,63.000000,28.603054,-31.603054
0.327881,1.631836,1.944580,56.862595,-17.427481,-25.022902
0.788086,1.582031,0.727539,38.381680,-57.549618,-17.618320
1.176758,1.339111,-0.568359,11.083969,-86.244278,-11.015267
1.432373,0.919189,-1.753174,-9.190840,-90.885498,-6.190840
1.488770,0.410889,-2.000000,-33.702290,-87.488548,0.412214
1.309570,-0.103271,-2.000000,-50.740459,-76.648857,9.679389
0.973877,-0.570312,-2.000000,-67.190842,-62.244274,20.992367
0.541260,-0.860107,-2.000000,-81.015266,-44.534351,32.167938
0.069092,-1.027832,-1.886230,-90.541985,-23.923664,42.305344
-0.369873,-1.090332,-0.750244,-96.900764,1.030534,57.022900
-0.750244,-1.049072,0.529297,-90.374046,19.267176,63.992367
-1.068848,-0.844971,1.785889,-74.641220,22.458015,77.076332
-1.237305,-0.569824,1.984314,-27.290077,15.091603,104.534348
-1.187012,0.033203,1.984314,29.290077,17.656488,116.442749
-1.172852,0.745850,1.984314,86.320610,8.305344,117.809158
-1.126709,1.211670,1.984314,115.198471,-17.083969,117.068703
-1.106445,1.385010,1.984314,111.564888,-66.671753,128.106873
-0.915771,1.572510,1.984314,81.541985,-168.389313,168.625961
-0.141846,1.820313,1.664307,108.877861,-250.137405,211.465652
1.052002,1.984314,1.100098,169.809158,-250.137405,137.282440
1.939941,1.984314,0.456543,83.381676,-250.137405,98.900764
1.984314,1.984314,0.144531,-28.206106,-250.137405,144.824432
1.984314,1.857910,-0.513428,-86.877861,-250.137405,124.251907
1.984314,-0.412354,-1.356201,-115.358780,-250.137405,110.709923
1.984314,-0.915771,-1.864502,-119.290077,-233.877869,126.198471
1.984314,-0.961670,-2.000000,-34.954197,-33.076336,-4.290076
1.984314,-0.368408,-2.000000,33.916031,76.259544,-51.480915
1.984314,-0.104492,-2.000000,12.946565,156.267181,-38.007633
1.455078,-0.199707,-2.000000,-19.862595,200.335876,-38.938931
0.601562,-0.505371,-1.241455,-14.648855,189.152664,-57.427483
-0.155029,-0.582031,-0.384766,-20.160305,114.763359,-44.679390
-0.456055,-0.357422,0.652100,-43.251907,36.725189,-21.801527
-0.321533,-0.199463,1.735107,-69.786263,-34.526718,-12.832061
1.820801,-0.604980,-2.000000,-78.213737,-59.259541,-24.656488
1.764404,-0.750732,-1.730713,-65.511452,-8.946565,-30.801527
1.533203,-0.714600,-0.864502,-41.320610,74.351143,-5.152672
1.222412,-0.598389,0.094971,-17.213741,159.488556,2.885496
0.742920,-0.456787,1.110596,6.183206,206.389313,-18.198473
0.258301,-0.333252,1.984314,37.312977,206.946564,-30.167938
-0.042969,0.011475,1.984314,82.335876,189.419846,-57.938931
-0.235840,0.409668,1.984314,119.725189,155.053436,-78.717560
-0.277832,0.882568,1.984314,141.007629,136.083969,-91.709923
-0.196777,1.337891,1.984314,140.564880,124.656487,-96.656487
-0.010742,1.710938,1.984314,126.435112,118.961830,-112.145035
0.159180,1.859619,1.984314,98.145035,76.877861,-132.152664
0.385498,1.879395,1.984314,48.854961,25.755726,-129.374039
0.761963,1.746338,0.994141,-10.259542,-19.030535,-101.412216
1.188965,1.462158,-0.334473,-55.801525,-40.572517,-97.778625
1.441406,1.010254,-1.579346,-81.702293,-36.167938,-93.099236
1.553467,0.501709,-2.000000,-93.396950,-8.809160,-72.969467
1.505127,0.056885,-2.000000,-89.854965,32.618320,-55.595421
1.183105,-0.418945,-2.000000,-92.274811,73.679390,-49.419846
0.710449,-0.686523,-2.000000,-93.122139,112.259544,-27.412214
0.204834,-0.781738,-2.000000,-100.175575,118.099236,-19.267176
-0.336670,-0.921875,-0.823975,-93.946564,122.045799,-26.923664
-0.773437,-0.847412,0.655762,-74.496185,116.114502,-16.755726
-0.976074,-0.497070,1.984314,-40.824429,104.992363,-14.732824
-1.062744,-0.038086,1.984314,-1.435115,88.221375,-25.000000
-0.988037,0.494385,1.984314,37.916031,62.900764,-34.839695
-0.723633,1.061768,1.984314,64.854965,36.137405,-35.198475
-0.333740,1.489014,1.984314,76.351143,4.290076,-34.335876
0.167480,1.693115,1.984314,66.183205,-34.351147,-34.633587
0.665771,1.733643,1.474854,45.435116,-65.969467,-38.725189
1.115723,1.583008,0.095215,28.755726,-79.870232,-35.465649
1.449951,1.222900,-1.265137,4.931298,-90.725189,-37.633587
1.619141,0.720215,-2.000000,-18.809160,-75.541985,-35.717556
1.552734,0.155518,-2.000000,-30.839695,-42.145039,-29.549618
1.272705,-0.348145,-2.000000,-38.366413,4.473282,-21.854961
0.791504,-0.656982,-2.000000,-48.061069,49.656490,-10.236641
0.215576,-0.835693,-1.723877,-64.145035,82.549622,5.229008
-0.313477,-0.881592,-0.516357,-72.916031,102.740456,21.534351
-0.718750,-0.763672,0.837402,-66.618324,105.923668,33.893131
-0.972412,-0.511475,1.984314,-51.511452,100.076332,40.106869
-1.105469,-0.187744,1.984314,-39.793892,95.908394,47.381680
-1.082520,0.187256,1.984314,-11.290076,79.061066,57.778625
-0.914307,0.517822,1.984314,23.007633,53.122139,70.610687
-0.650635,0.821289,1.984314,60.335876,11.412213,73.572517
-0.322754,1.112793,1.984314,98.893127,-41.633587,69.274811
0.031982,1.298828,1.416992,112.763359,-89.671753,67.381676
0.238037,1.116943,-0.247314,69.160309,-136.091599,67.229004
0.399414,0.666748,-1.675781,23.435114,-213.412216,89.595421
0.636719,0.487061,-2.000000,12.312977,-250.137405,116.824425
0.759033,0.312256,-2.000000,-20.534351,-250.137405,139.977097
0.973633,0.405029,-2.000000,-56.458015,-250.137405,166.396942
1.489014,0.323242,-2.000000,-11.419847,-250.137405,180.603058
1.973389,-0.003418,-2.000000,58.427483,-250.137405,124.496185
1.984314,0.292480,-1.604248,-22.099237,-250.137405,138.755722
1.984314,0.560059,-0.570312,-78.160309,-250.137405,137.526718
1.984314,-0.431641,0.100586,-166.137405,-250.137405,110.748093
1.984314,-1.683838,0.853760,-192.000000,-130.931305,103.083969
1.984314,-1.632813,1.755859,-99.603050,85.480919,80.603050
1.616455,-0.509277,1.984314,15.412213,235.977097,30.000000
0.744873,0.536377,1.984314,47.412212,248.175568,-2.312977
0.018311,0.694580,1.984314,-7.251908,248.175568,-27.137405
-0.462891,0.436523,1.984314,-22.580153,221.305344,-44.030533
-0.629639,0.552002,1.984314,23.984734,166.458008,-41.351147
-0.446289,1.103760,1.984314,72.923668,102.320610,-23.526718
0.108643,1.751709,1.984314,78.167938,33.633587,-20.923664
0.784912,1.976318,1.984314,59.709923,-11.526717,-30.992367
1.375244,1.888916,1.984314,45.786259,-25.312977,-33.709923
1.852783,1.767090,1.677979,44.305344,-22.916031,-29.404581
1.984314,1.576660,0.485596,47.519085,-18.236641,-29.809160
1.984314,1.302979,-0.695312,49.549618,-12.961832,-41.022900
1.984314,0.909424,-1.721680,61.435116,-5.000000,-54.129772
1.984314,0.571045,-2.000000,69.351143,-3.030534,-77.213737
1.984314,0.156982,-2.000000,64.870232,7.198473,-89.793892
1.949219,-0.159912,-2.000000,59.900764,39.068703,-97.152672
1.507324,-0.413330,-2.000000,52.229008,74.396950,-116.687019
0.856445,-0.585693,-2.000000,29.816793,105.786263,-116.358780
0.275146,-0.490967,-1.240479,2.366412,134.206100,-103.664124
-0.261475,-0.406006,-0.115479,-36.473282,151.129776,-95.091606
-0.662598,-0.221436,1.233398,-65.312981,155.709930,-83.648857
-0.877686,0.079102,1.984314,-76.709923,162.053436,-70.473282
0.366455,-0.610107,-1.913330,-80.198471,163.206100,-65.900764
-0.074463,-0.664307,-0.559814,-57.992367,168.190842,-68.870232
-0.491699,-0.605225,1.000244,-31.427481,161.076340,-65.709923
-0.725342,-0.180908,1.984314,-5.526718,150.297714,-58.229008
-0.833740,0.355225,1.984314,17.000000,124.786263,-66.419846
-0.793457,0.896973,1.984314,23.503817,87.923668,-81.694656
-0.624268,1.316895,1.984314,11.396947,47.618320,-84.030533
-0.272949,1.531250,1.984314,-8.076336,7.160306,-80.450378
0.207031,1.527100,1.984314,-31.358778,-31.007633,-79.656487
0.719971,1.367920,1.006104,-47.809162,-53.564884,-75.099236
1.188477,1.063965,-0.468994,-44.564884,-54.839695,-71.198471
1.448975,0.647949,-1.849854,-53.244274,-29.442749,-61.320610
1.447021,0.153809,-2.000000,-48.320610,11.923664,-54.129772
1.172852,-0.375488,-2.000000,-47.083969,51.496181,-46.557251
0.706055,-0.766357,-2.000000,-44.679390,86.290077,-35.961834
0.160889,-0.988037,-2.000000,-38.198475,105.809158,-25.099237
-0.357178,-1.014648,-0.830566,-36.732826,119.603050,-11.687023
-0.787598,-0.868408,0.668701,-19.977098,120.458015,-2.335878
-1.098877,-0.540039,1.984314,-4.129771,104.816795,5.343512
-1.256836,-0.040771,1.984314,8.740458,76.877861,14.954199
-1.188477,0.472656,1.984314,5.824428,55.916031,26.969465
-0.922363,0.898682,1.984314,4.633588,6.801527,30.381680
-0.541748,1.042480,1.984314,-4.938931,-49.000000,36.083969
-0.086914,0.953857,1.984314,-17.916031,-105.618324,51.221375
0.353027,0.705078,0.647217,-28.061069,-151.648849,75.213737
0.765137,0.479980,-0.750977,-15.633588,-179.229004,99.122139
1.047607,0.256592,-2.000000,9.450381,-193.496185,108.687019
1.139893,-0.021484,-2.000000,23.671755,-194.190842,110.748093
1.041748,-0.395264,-2.000000,21.190840,-183.534348,112.984734
0.779785,-0.646240,-2.000000,17.816793,-158.320618,117.938934
0.370850,-0.527100,-2.000000,37.786259,-144.450378,117.702293
-0.010010,-0.124756,-2.000000,75.572517,-163.557251,123.519081
-0.164551,0.484863,-1.784912,97.572517,-196.106873,152.595413
0.109619,0.625000,-0.287842,27.740458,-223.992371,211.587784
0.470215,0.315674,1.406494,44.137405,-203.839691,197.648849
0.694824,0.770508,1.984314,-80.160309,-159.465652,227.572525
0.983398,1.053711,1.984314,-160.312973,-159.725189,225.083969
1.441895,0.364746,1.984314,-141.610687,-194.748093,159.832062
1.984314,-0.223877,1.984314,-175.671753,-130.755722,113.061066
1.978760,-0.724365,1.984314,-59.381680,-60.320610,67.770996
1.699707,0.075684,1.984314,88.740456,105.816795,23.541985
1.448486,1.700928,1.984314,165.778625,165.908401,-2.801527
1.220947,1.984314,1.984314,107.938934,157.534348,-36.748093
1.000977,1.739014,1.984314,32.068703,109.358780,-58.244274
1.007324,1.328369,1.984314,35.625954,36.312977,-65.519081
1.244873,1.282959,1.361816,66.083969,-21.519083,-63.061069
1.663330,1.396240,0.377197,68.175575,-69.984734,-62.778625
1.984314,1.372803,-0.653564,42.603054,-104.282440,-61.900764
1.984314,1.081055,-1.583984,13.312977,-102.351143,-60.511452
1.984314,0.636719,-2.000000,-3.564885,-70.374046,-56.557251
1.984314,0.140625,-2.000000,6.083970,-32.458015,-55.061069
1.984314,-0.283203,-2.000000,19.496183,17.549618,-57.213741
1.984314,-0.506592,-2.000000,42.984734,74.847328,-74.259544
1.579834,-0.564453,-2.000000,59.992367,126.129768,-82.503815
1.114746,-0.489014,-1.213135,77.335876,172.679382,-92.862595
0.608398,-0.331055,-0.360596,75.732826,215.961838,-122.458015
0.067139,-0.133057,0.712646,53.786259,248.175568,-129.977097
-0.416992,0.200684,1.750000,24.770992,248.175568,-130.251907
-0.768066,0.584473,1.984314,-7.671756,245.648849,-124.618324
-0.850098,0.926514,1.984314,-31.977098,213.557251,-115.496185
-0.700684,1.220215,1.984314,-62.099236,203.038162,-114.213737
-0.453613,1.385742,1.984314,-65.496185,179.419846,-113.267174
-0.085937,1.455078,1.984314,-58.572517,141.000000,-105.213737
0.286865,1.377197,1.757324,-59.465649,102.580154,-76.595421
0.718994,1.249512,0.368652,-58.106869,68.564888,-58.145039
1.040527,0.917725,-1.105225,-63.473282,30.824427,-49.305344
1.175293,0.455811,-2.000000,-67.152672,-2.396947,-53.213741
1.067871,-0.073730,-2.000000,-67.488548,-28.946566,-57.244274
0.803955,-0.628418,-2.000000,-69.190842,-42.977100,-53.564884
0.443848,-1.002930,-2.000000,-68.076332,-40.877861,-44.702290
0.044189,-1.146973,-1.854980,-56.473282,-36.541985,-40.770992
-0.374512,-1.116699,-0.480713,-45.916031,-2.534351,-35.267174
-0.746094,-0.917725,1.011963,-26.213741,35.068703,-28.625954
-1.015137,-0.552979,1.984314,-4.267176,73.190842,-19.480917
-1.147705,-0.027832,1.984314,17.198473,105.664124,-5.755725
-1.048584,0.604492,1.984314,39.748093,126.190842,11.137404
-0.764648,1.227295,1.984314,48.480915,117.748093,12.343512
-0.396240,1.652100,1.984314,40.045803,85.870232,10.763359
0.116943,1.837891,1.984314,33.366413,41.534351,12.923664
0.675781,1.755615,1.572021,31.297710,-4.908397,10.977099
-0.754395,1.086670,1.984314,31.916031,-25.381680,7.709924
-0.348877,1.362793,1.984314,32.816795,-59.381680,2.725191
0.134521,1.463379,1.984314,22.832062,-83.282440,3.274809
0.597168,1.435547,1.723633,4.954198,-97.305344,7.801527
1.005371,1.211914,0.173828,-10.748092,-101.992363,19.213741
1.217529,0.758545,-1.462402,-34.839695,-93.778625,33.488548
1.247070,0.134277,-2.000000,-52.580154,-74.053436,55.129772
1.093750,-0.525879,-2.000000,-62.732826,-54.480915,88.335876
0.850586,-0.932617,-2.000000,-39.847328,-25.374046,119.335876
0.447266,-1.061768,-2.000000,-16.740458,-14.786260,122.702293
-0.072021,-1.053711,-2.000000,-13.534351,-42.083969,130.748093
-0.568359,-0.943848,-2.000000,3.305344,-56.038166,135.183212
-1.028564,-0.843262,-0.807373,11.343512,-78.870232,132.870224
-1.399658,-0.487305,0.382080,20.450382,-120.000000,143.763351
-1.377441,0.131348,1.914795,23.664122,-209.198471,160.679382
-0.833008,0.726562,1.984314,29.053434,-250.137405,158.274811
-0.004150,1.189453,1.984314,70.450378,-250.137405,117.389313
1.038818,1.984314,1.984314,30.442749,-250.137405,147.572525
1.984314,1.984314,1.984314,-44.328243,-250.137405,147.587784
1.984314,1.481689,1.984314,-141.679382,-250.137405,109.274811
1.984314,0.290527,1.984314,-138.236649,-160.793900,80.435112
1.984314,0.539795,1.984314,24.145039,-52.793892,46.732826
1.984314,1.680420,1.463379,172.244278,31.473282,10.206107
1.984314,1.984314,-0.157959,140.465652,28.511450,-14.015267
1.984314,1.848633,-1.192871,-7.496183,29.923664,-57.160305
1.984314,0.642822,-1.801758,-58.732826,-0.770992,-76.335876
1.984314,0.093994,-2.000000,-20.328245,-41.374046,-56.801525
1.984314,0.019775,-2.000000,-7.633588,-38.709923,-41.870228
1.984314,-0.259277,-2.000000,-44.908398,-19.893129,-38.297710
1.915283,-0.645020,-2.000000,-64.854965,16.984734,-36.480915
1.606689,-0.848877,-2.000000,-53.519085,42.854961,-39.076336
1.236816,-0.832275,-1.115479,-30.374046,90.198471,-32.816795
0.890137,-0.649170,-0.000244,-5.938931,141.526718,-26.038168
0.561523,-0.403564,1.260498,16.152672,185.839691,-26.335878
0.271729,-0.092041,1.984314,39.946564,214.938934,-41.381680
0.010986,0.195068,1.984314,71.687019,226.282440,-60.320610
-0.124268,0.630371,1.984314,109.603050,224.961838,-80.137405
-0.149658,1.132324,1.984314,142.099243,214.862595,-89.427483
-0.032715,1.619385,1.984314,163.641220,195.068695,-98.717560
0.170166,1.939453,1.984314,156.603058,153.931305,-112.236641
0.453857,1.984314,1.984314,118.213737,118.015266,-127.160309
0.781006,1.984314,1.176758,64.259544,58.259541,-144.587784
1.103516,1.777588,-0.221924,-1.083969,-11.931297,-129.725189
1.505615,1.282227,-1.482666,-54.717556,-40.282444,-104.488548
1.721680,0.680176,-2.000000,-91.389313,-24.763359,-93.000000
1.604980,0.049072,-2.000000,-103.824425,11.793893,-89.198471
1.198486,-0.549072,-2.000000,-104.732826,55.167938,-78.709923
0.623291,-0.834717,-2.000000,-89.114502,100.160309,-67.480919
0.017822,-0.872314,-1.469727,-68.847328,131.419846,-48.167938
-0.442627,-0.662354,0.053467,-55.450382,149.923660,-45.740459
-0.816406,-0.359131,1.559814,-55.297710,143.916031,-59.763359
-1.060791,0.010498,1.984314,-52.091602,147.083969,-67.152672
-1.117920,0.431641,1.984314,-44.282444,144.961838,-63.587788
-0.929443,0.875000,1.984314,-24.114504,124.786263,-60.923664
-0.566650,1.168213,1.984314,-6.984733,84.778625,-55.862595
-0.049805,1.354492,1.984314,14.305344,40.389313,-53.213741
0.471680,1.440674,1.658691,25.641222,-4.099236,-53.160305
0.937500,1.340576,0.309814,26.419847,-38.083969,-46.374046
1.249512,0.977783,-1.166748,25.213741,-67.229004,-51.045803
1.362305,0.553467,-2.000000,4.519084,-79.435112,-51.755726
1.272217,0.068359,-2.000000,-0.076336,-79.183205,-41.175571
0.997314,-0.469238,-2.000000,-23.755726,-66.335876,-25.572519
0.568359,-0.831055,-2.000000,-45.778625,-40.557251,-9.961832
0.058105,-0.962158,-1.824463,-62.305344,-9.717557,4.702290
-0.436035,-0.898926,-0.480225,-70.557251,24.458015,13.832061
-0.860596,-0.703613,0.975098,-73.755722,51.022900,23.061069
-1.147949,-0.400879,1.984314,-71.404579,65.671753,35.251907
-1.262695,-0.057373,1.984314,-62.427483,68.633591,50.511452
-1.192871,0.317871,1.984314,-51.114502,57.396946,71.076332
-0.922607,0.642334,1.984314,-24.877863,25.633587,91.152672
-0.511475,0.768799,1.984314,-9.496183,-14.961832,114.770996
-0.000732,0.859863,1.984314,26.877863,-75.045799,129.259537
0.474854,0.893799,0.564941,71.526718,-132.152664,126.702293
0.783447,0.973389,-0.761719,99.389313,-158.610687,120.122139
0.842773,0.904785,-2.000000,112.572517,-197.633591,105.274811
0.889648,0.732666,-2.000000,100.083969,-250.137405,89.801529
1.001709,0.755371,-2.000000,81.381676,-250.137405,78.206108
1.166016,0.631348,-2.000000,30.290077,-250.137405,93.137405
1.437500,0.163574,-2.000000,-46.114502,-250.137405,126.541985
1.505371,-0.333984,-1.305420,6.305344,-250.137405,122.351143
1.984314,1.973145,-0.695801,-32.564884,-250.137405,170.083969
1.984314,1.253174,-1.126221,-133.587784,-250.137405,185.297714
1.984314,-0.346680,-1.239258,-212.442749,-228.748093,133.687027
1.984314,-1.322021,-1.260010,-205.259537,-162.274811,100.320610
1.984314,-1.335693,-1.096924,-52.145039,-5.114504,56.793892
1.984314,-0.524902,-0.933105,64.763359,175.297714,19.450382
1.374268,0.045654,-0.552490,59.274811,248.175568,16.687023
0.557373,-0.038574,0.485840,3.709924,248.175568,-10.396947
-0.310791,-0.309326,1.624023,12.679389,221.160309,-29.320610
-0.708252,-0.139404,1.984314,46.656490,94.847328,-30.366413
-0.638428,0.309570,1.984314,48.038166,13.541985,-27.190840
-0.249512,0.719238,1.984314,40.374046,-50.572517,-31.175573
0.258545,1.030273,1.984314,36.000000,-73.374046,-34.282444
0.770752,1.293945,1.984314,47.160305,-62.458015,-36.335876
1.250488,1.446533,1.984314,62.732826,-43.251907,-41.175571
1.691162,1.510010,1.984314,75.656487,-31.458015,-46.198475
1.984314,1.526855,1.066650,88.106873,-19.793894,-55.778625
1.984314,1.438232,-0.282227,94.320610,7.183206,-69.572517
1.984314,1.200684,-1.572754,88.916031,59.900764,-87.351143
1.984314,0.857910,-2.000000,75.854965,119.083969,-105.458015
1.963867,0.417969,-2.000000,55.229008,143.694656,-122.969467
1.390381,-0.043945,-2.000000,16.351145,168.717560,-128.419846
0.723877,-0.317871,-2.000000,-21.290077,174.938934,-126.061066
0.089111,-0.462402,-1.558350,-55.312977,172.343506,-95.259544
-0.316162,-0.415039,-0.134277,-73.984734,173.580154,-63.152672
-0.547607,-0.217529,1.562012,-81.152672,167.427475,-58.091602
-0.694580,0.132812,1.984314,-62.549618,163.809158,-69.045799
-0.710693,0.565674,1.984314,-28.083969,150.633591,-73.053436
-0.560303,1.092285,1.984314,4.709924,130.404587,-71.847328
-0.261963,1.439453,1.984314,25.076336,92.114502,-72.328247
0.189941,1.651611,1.984314,30.511450,64.740456,-68.045799
0.668701,1.687988,1.214111,16.419847,16.175573,-74.984734
1.079102,1.428711,-0.342285,-15.587787,-21.541985,-82.938934
1.341553,0.952148,-1.761963,-47.473282,-34.412212,-81.328247
1.383789,0.327637,-2.000000,-77.068703,-23.534351,-73.885498
1.167236,-0.374268,-2.000000,-99.213737,13.946565,-58.816795
0.693115,-0.853271,-2.000000,-101.267174,61.503819,-43.015266
0.088135,-1.071289,-1.981201,-92.007637,99.992363,-27.549618
-0.474121,-1.049072,-0.577637,-75.931297,127.969467,-18.061069
-0.932373,-0.870850,0.968018,-47.610687,131.320618,-17.572519
-1.190674,-0.455566,1.984314,-25.740458,122.282440,-15.511451
-1.220703,0.106201,1.984314,6.167939,114.381676,-14.725191
-1.030518,0.724121,1.984314,32.488548,88.641220,-17.427481
-0.677002,1.228027,1.984314,40.763359,48.068703,-9.610687
-0.125061,-0.000061,-0.000061,-0.007634,-0.007634,-0.007634
0.435303,1.597168,1.745605,49.259541,-48.381680,-16.251909
0.916992,1.473877,0.156738,38.000000,-85.244278,-21.549618
1.213623,1.090332,-1.431396,15.022901,-108.297707,-21.458015
1.282715,0.495605,-2.000000,-16.458015,-117.954201,-14.274809
1.136475,-0.242187,-2.000000,-56.343510,-116.748093,7.557252
0.822021,-0.885254,-2.000000,-76.129768,-118.473282,31.946566
0.338623,-1.319824,-2.000000,-89.274811,-91.809158,64.229004
-0.207520,-1.564209,-1.905762,-96.030533,-57.732826,99.259544
-0.712158,-1.503174,-0.556152,-71.480919,-35.045803,128.931305
-1.115967,-1.269775,0.689697,-40.977100,-35.183205,153.038162
-1.370361,-0.837891,1.984314,1.625954,-39.396946,157.893127
-1.549805,-0.211426,1.984314,32.870228,-66.396950,157.190842
-1.583496,0.232178,1.984314,71.068703,-118.381676,160.389313
-1.287354,0.979736,1.984314,144.572525,-186.351151,145.664124
-0.422852,1.984314,1.984314,218.083969,-250.137405,130.030533
0.468018,1.984314,1.984314,121.610687,-250.137405,144.488556
1.783203,1.984314,1.984314,157.656494,-250.137405,94.610687
1.984314,1.984314,1.984314,64.282440,-250.137405,170.732819
1.984314,1.984314,1.223877,-125.641220,-250.137405,203.854965
1.984314,0.690918,-0.577393,-238.801529,-250.137405,77.610687
1.984314,-1.299316,-1.589600,-230.526718,-248.740463,48.374046
1.984314,-1.096680,-1.997314,-41.702290,90.000000,-10.557252
1.984314,-0.052002,-2.000000,118.442749,248.175568,-50.198475
1.984314,0.330566,-2.000000,109.435112,248.175568,-52.549618
0.910156,-0.007080,-2.000000,-15.038168,248.175568,-65.435112
-0.256348,-0.620361,-1.092285,-80.404579,177.488556,-67.068703
-0.875488,-0.728516,0.395508,-58.305344,79.198471,-54.763359
-0.855225,-0.392822,1.984314,-21.625954,18.221375,-35.954197
-0.437561,-0.000061,-0.000061,-0.007634,-0.007634,-0.007634
-0.054932,0.621338,1.984314,4.923664,66.076332,-33.725189
0.232178,1.097656,1.984314,27.709923,125.404579,-29.106871
0.485840,1.372070,1.984314,63.862595,165.870224,-22.725191
0.825439,1.570068,1.984314,107.946564,170.175568,-24.557251
1.240234,1.758057,1.984314,145.618317,141.076340,-44.022900
-0.213379,1.212646,1.984314,163.687027,116.152672,-79.106873
-0.018555,1.687256,1.984314,150.526718,68.870232,-103.839691
0.351074,1.916504,1.984314,104.671753,36.290077,-102.091606
0.833008,1.952637,1.984314,46.480915,10.709924,-104.083969
1.196045,1.718506,0.560791,-15.893129,-5.885496,-115.251907
1.484619,1.263184,-1.001709,-64.870232,-5.129771,-85.145035
1.704590,0.807373,-2.000000,-95.755722,16.206106,-76.374046
1.610107,0.151611,-2.000000,-106.160309,44.106869,-93.366409
1.249268,-0.524902,-2.000000,-100.328247,84.839691,-79.595421
0.702393,-0.809814,-2.000000,-82.694656,138.595413,-42.618320
0.058105,-0.812012,-1.064453,-90.427483,170.877869,-14.198473
-0.430908,-0.497314,0.658203,-74.167938,195.412216,-0.007634
-0.872559,-0.127930,1.984314,-58.496181,160.870224,-44.267174
-1.183350,0.178955,1.984314,-36.862595,103.732826,-68.183205
-1.033203,0.761475,1.984314,-5.717557,55.015266,-63.305344
-0.547607,1.372070,1.984314,8.572519,5.236641,-70.687019
0.026123,1.652832,1.984314,2.793893,-34.114502,-82.473282
0.590576,1.654297,1.805664,-9.267176,-55.770992,-88.725189
1.033936,1.370605,0.194336,-34.977100,-65.832062,-82.740456
1.350586,0.916504,-1.341553,-47.465649,-56.923664,-73.526718
1.399170,0.345459,-2.000000,-52.488548,-45.167938,-61.190838
1.245117,-0.183105,-2.000000,-56.328243,8.893129,-40.679390
0.796875,-0.631592,-2.000000,-57.312977,60.122139,-29.541985
0.183594,-0.837646,-1.617920,-60.290077,107.618324,-23.022902
-0.501465,-0.873291,-0.220459,-63.374046,136.389313,-9.610687
-0.981201,-0.652344,1.500488,-43.251907,139.687027,-0.267176
-1.236572,-0.227051,1.984314,-16.351145,110.015266,1.229008
-1.126953,0.444336,1.984314,9.396947,69.625954,5.198473
-0.699951,1.099609,1.984314,29.534351,20.480917,-3.610687
-0.160156,1.423584,1.984314,31.091602,-28.534351,-12.061069
0.400879,1.439941,1.954102,24.137405,-51.000000,-5.206107
0.871338,1.158936,0.129395,-1.595420,-83.083969,7.580153
1.152588,0.599365,-1.745605,-37.007633,-99.854965,27.587786
1.166016,-0.134521,-2.000000,-68.938934,-103.946564,53.969467
0.944092,-0.912842,-2.000000,-89.633591,-98.000000,78.190842
0.526855,-1.422852,-2.000000,-85.229004,-78.801529,108.900764
0.106201,-1.485107,-2.000000,-41.961834,-68.389313,126.374046
-0.310059,-1.370361,-1.403809,-6.549618,-66.923668,131.083969
-0.741699,-1.164551,0.137207,26.564886,-47.740459,129.862595
-1.202148,-0.924072,1.532471,68.000000,-23.015266,137.671753
-1.654541,-0.504639,1.984314,102.603050,-28.152672,153.496185
-1.767578,0.318115,1.984314,177.923660,-97.900764,161.526718
-1.386230,1.367676,1.984314,224.297714,-202.412216,141.931305
-0.598633,1.729492,1.984314,155.000000,-250.137405,145.961838
0.540039,1.869385,1.984314,47.648853,-250.137405,170.221375
1.792480,1.984314,1.984314,104.709923,-250.137405,133.091599
1.984314,1.984314,1.984314,31.572519,-250.137405,179.061066
1.984314,1.970947,1.418213,-98.969467,-250.137405,193.496185
1.984314,0.618652,-0.560547,-159.358780,-250.137405,105.809158
1.984314,-0.425537,-1.695313,-169.511444,-228.229004,50.206108
1.984314,-0.826660,-2.000000,-34.229008,44.564884,-7.824428
1.984314,-0.248779,-2.000000,54.564884,216.404587,-36.801525
1.984314,0.008301,-2.000000,66.587784,248.175568,-30.366413
1.064941,-0.048340,-1.910645,7.167939,248.175568,-42.839695
0.045410,-0.326904,-0.601074,-32.969467,221.045807,-50.404579
-0.638916,-0.311279,0.992920,-23.381680,161.007629,-44.297710
-0.771484,0.056396,1.984314,7.427481,86.091606,-39.801525
-0.436768,0.640381,1.984314,31.603054,42.564884,-48.984734
0.015381,1.228271,1.984314,39.954197,43.977100,-61.198475
0.440918,1.582275,1.984314,45.328243,67.213737,-63.015266
0.848389,1.683350,1.984314,52.923664,109.916031,-58.641220
1.242432,1.692627,1.984314,75.045799,110.938934,-62.587788
1.639160,1.616699,0.995850,88.778625,85.404579,-75.229004
1.958008,1.385498,-0.630615,92.778625,51.030533,-99.274811
1.984314,0.955566,-2.000000,77.007637,27.839695,-115.580154
1.983887,0.492187,-2.000000,45.496181,38.946564,-115.496185
1.627197,-0.012207,-2.000000,3.572519,54.793892,-123.083969
1.024170,-0.428223,-2.000000,-45.236641,74.572517,-114.885498
0.360840,-0.618896,-1.935059,-82.076332,100.099236,-106.152672
-0.283203,-0.653320,-0.501709,-106.564888,122.946564,-80.618324
-0.653076,-0.377441,1.258301,-113.511452,129.587784,-61.290077
-0.852295,0.030518,1.984314,-108.977097,147.625961,-50.152672
-0.803223,0.565430,1.984314,-91.664124,164.099243,-52.122139
-0.664062,1.000488,1.984314,-67.839691,162.839691,-57.770992
-0.287842,1.362549,1.984314,-39.297710,146.206100,-52.740459
0.220215,1.586426,1.984314,-13.412213,101.709923,-70.839691
0.710937,1.568604,1.440186,7.580153,41.167938,-77.709923
1.220215,1.373291,-0.182861,10.351145,-12.946565,-85.618324
1.491699,0.857422,-1.671143,0.091603,-49.603054,-98.412216
1.490967,0.290039,-2.000000,-6.137404,-64.122139,-97.969467
0.837891,1.423340,1.123047,-4.984733,-61.618320,-84.564888
1.228760,1.192871,-0.523193,-16.862595,-39.809162,-70.122139
1.364990,0.754639,-2.000000,-28.870230,-15.450381,-64.297707
1.246582,0.182861,-2.000000,-53.557251,16.290077,-56.656490
0.950439,-0.451904,-2.000000,-74.122139,49.984734,-35.114502
0.493408,-0.846924,-2.000000,-73.099236,74.404579,-24.022902
-0.030762,-1.008545,-1.132080,-61.969467,101.908394,-17.381680
-0.562500,-0.947754,0.394531,-37.236641,108.206108,-14.106871
-0.980957,-0.672119,1.984314,-9.732824,91.366409,-7.259542
-1.153564,-0.212646,1.984314,25.236641,55.587788,-4.916030
-1.075195,0.355957,1.984314,30.541985,27.083969,0.229008
-0.735596,0.856201,1.984314,37.832062,-23.389313,4.427481
-0.281006,1.055420,1.984314,28.221375,-73.160309,11.229008
0.250000,1.052002,1.918213,7.183206,-112.106873,23.145039
0.734375,0.888184,0.218262,-7.091603,-138.732819,38.801525
1.066895,0.524902,-1.540771,-26.572519,-149.152664,60.412212
1.181152,0.011475,-2.000000,-42.312977,-138.076340,78.496185
1.046143,-0.547119,-2.000000,-42.366413,-114.442749,104.503815
0.744629,-0.940918,-2.000000,-28.603054,-87.129768,125.832062
0.247559,-0.983154,-2.000000,-6.366412,-58.992367,129.786255
-0.346191,-0.878174,-1.418457,26.847328,-46.435116,121.946564
-1.124756,-1.031006,-0.046143,31.374046,-22.900763,137.603058
-1.751709,-0.866943,1.477295,44.961834,-32.297710,175.557251
-2.000000,-0.397705,1.984314,72.198471,-85.221375,207.198471
-1.800781,0.479736,1.984314,111.854965,-205.923660,213.549622
-0.938477,1.162354,1.984314,107.709923,-250.137405,214.854965
0.705811,1.984314,1.984314,138.267181,-250.137405,170.816788
1.984314,1.984314,1.984314,119.854965,-250.137405,100.801529
1.984314,1.984314,1.984314,-4.839694,-250.137405,116.145035
1.984314,1.943115,0.191650,-97.122139,-250.137405,148.091599
1.984314,0.164795,-1.559570,-166.374039,-250.137405,80.129768
1.984314,-0.365479,-2.000000,-107.702293,129.916031,31.114504
1.984314,-0.281250,-2.000000,27.488550,248.175568,-26.343512
1.984314,-0.218262,-2.000000,87.923668,248.175568,-50.938931
1.323975,-0.320068,-2.000000,54.877861,248.175568,-59.916031
0.094727,-0.480469,-1.506104,10.824428,248.175568,-52.618320
-0.799561,-0.492920,0.056396,-8.877863,229.236649,-37.419846
-1.082031,-0.114746,1.767822,10.091603,97.977097,-26.198473
-0.682617,0.481934,1.984314,37.366413,4.587786,-48.519085
-0.230713,0.989014,1.984314,43.763359,-21.740458,-79.290077
0.248535,1.357422,1.984314,47.282444,21.229008,-61.297710
0.746826,1.582764,1.984314,62.664124,67.709923,-49.732826
1.127686,1.647949,1.984314,70.267174,86.267174,-58.511452
1.393311,1.515869,0.958740,69.572517,54.473282,-73.854965
1.687012,1.225586,-0.630127,56.916031,6.343512,-76.396950
1.947998,0.843018,-2.000000,33.954197,-18.740458,-70.770996
1.984314,0.350342,-2.000000,5.213740,1.854962,-65.267174
1.862061,-0.160889,-2.000000,-23.534351,53.946564,-74.465652
1.284424,-0.498779,-2.000000,-46.022900,121.053436,-88.343513
0.478271,-0.599365,-1.130615,-48.679390,180.954193,-83.213737
-0.206543,-0.408691,0.453125,-47.389313,205.198471,-62.351147
-0.672607,-0.003662,1.984314,-47.625954,223.305344,-52.129772
-0.933594,0.458740,1.984314,-42.618320,215.709930,-50.167938
-0.831299,1.049316,1.984314,-29.847328,185.183212,-49.702290
-0.431641,1.473633,1.984314,-18.274809,133.053436,-51.870228
0.183594,1.665039,1.984314,-14.603053,77.549622,-50.687023
0.822754,1.657471,1.233154,-21.282442,25.129770,-62.992367
1.267090,1.333984,-0.548096,-32.045803,-18.587786,-74.938934
1.458252,0.738037,-2.000000,-49.122139,-44.045803,-78.938934
1.369385,0.070557,-2.000000,-72.030533,-46.320610,-74.129768
0.997559,-0.610107,-2.000000,-75.053436,-43.503819,-65.595421
0.444580,-0.997559,-2.000000,-84.251907,-15.175572,-54.702290
-0.170410,-1.062500,-0.929687,-78.335876,24.862595,-49.099236
-0.704834,-0.832031,0.849609,-62.030533,66.984734,-38.534351
-1.031982,-0.359619,1.984314,-43.870228,101.809158,-25.877863
-1.118164,0.264404,1.984314,-24.534351,117.511452,-23.244274
-0.885986,0.905273,1.984314,1.954198,-0.007634,-0.007634
-0.407959,1.345947,1.984314,19.328245,60.885498,-24.366413
0.250732,1.499756,1.984314,40.954197,12.335877,-23.290077
0.881348,1.373291,1.053955,50.137405,-38.977100,-27.312977
1.387451,1.061768,-0.541992,58.916031,-61.030533,-32.160305
1.633789,0.629395,-1.967773,60.870228,-89.206108,-39.343510
1.593506,0.120117,-2.000000,46.473282,-92.854965,-41.374046
1.221191,-0.457275,-2.000000,12.732824,-69.580154,-34.312977
0.600098,-0.768799,-2.000000,-27.839695,-27.534351,-16.717558
-0.081299,-0.844482,-0.730225,-64.824425,17.007633,0.549618
-0.696777,-0.732666,0.925049,-90.595421,55.328243,23.358778
-1.051270,-0.446533,1.984314,-100.641220,81.221375,42.068703
-1.157959,-0.080811,1.984314,-94.206108,92.435112,62.679390
-0.982666,0.316895,1.984314,-71.083969,86.488548,85.229004
-1.085205,-1.272949,1.363525,-55.083969,70.694656,106.900764
-1.374268,-0.897217,1.984314,-9.450381,24.916031,122.885498
-1.431152,-0.386475,1.984314,27.648855,-54.083969,136.106873
-1.237793,0.144287,1.984314,58.671757,-125.007637,144.099243
-1.049316,0.326904,1.984314,58.251907,-180.404587,151.832062
-0.825928,0.719482,1.984314,57.229008,-220.412216,159.809158
-0.498535,1.257568,1.123779,92.687019,-250.137405,167.198471
0.088867,1.504150,-0.050781,105.038170,-250.137405,155.748093
0.916992,1.498779,-1.270020,83.549622,-250.137405,133.671753
1.968506,1.525879,-1.841553,63.419846,-250.137405,118.610687
1.984314,1.426025,-1.756348,15.290076,-250.137405,99.167938
1.984314,0.656006,-1.777344,-17.053434,-250.137405,78.809158
1.984314,-0.363525,-1.484863,-201.206100,-250.137405,174.564880
1.984314,-1.884277,-1.314209,-250.137405,-194.076340,134.190842
1.984314,-2.000000,0.142578,-189.122131,217.541992,145.160309
1.984314,-1.117676,0.965820,17.442749,248.175568,1.534351
1.027100,-0.187500,1.944580,162.183212,248.175568,-53.099236
0.045166,0.462646,1.984314,172.503815,248.175568,-55.977100
-0.573242,0.863037,1.984314,115.847328,248.175568,-55.992367
-0.815430,1.345459,1.984314,89.809158,208.374039,-68.992363
-0.568359,1.721436,1.984314,89.244278,48.763359,-79.412216
0.290283,1.976318,1.984314,103.358780,-91.709923,-98.244278
1.222412,1.940186,1.785645,81.854965,-153.480911,-116.893127
1.962402,1.803955,0.401611,48.717556,-121.045799,-104.832062
1.984314,1.399170,-1.049561,14.458015,-32.022900,-92.450378
1.984314,0.787842,-2.000000,-18.190840,55.480915,-79.694656
1.857178,0.169922,-2.000000,-36.488548,100.816795,-76.412216
1.377197,-0.384033,-2.000000,-46.786259,112.198471,-73.381676
0.916260,-0.633057,-2.000000,-51.946564,126.572517,-56.984734
0.539307,-0.634766,-1.167969,-50.816795,159.809158,-37.458015
0.176514,-0.492920,0.260742,-56.038166,192.954193,-49.496181
-0.318604,-0.373779,1.834473,-48.305344,218.442749,-70.938934
-0.679687,0.079590,1.984314,-21.465649,225.633591,-66.160309
-0.767334,0.694336,1.984314,11.450381,195.221375,-58.709923
-0.491455,1.353271,1.984314,26.190840,132.763351,-66.503815
-0.028564,1.618164,1.984314,24.076336,68.183205,-72.335876
0.560547,1.774414,1.984314,9.320611,23.938931,-71.587784
1.071045,1.671631,0.520508,-19.564886,-7.587786,-74.290077
1.378906,1.220947,-1.137695,-53.954197,-26.129770,-82.587784
1.448486,0.613281,-2.000000,-82.610687,-21.725191,-77.251907
1.286377,0.010986,-2.000000,-81.343513,-15.022901,-70.893127
0.881104,-0.516602,-2.000000,-90.236641,12.366412,-65.312981
0.313232,-0.797607,-2.000000,-100.511452,43.755726,-61.458015
-0.303223,-0.925537,-1.053955,-113.290077,65.549622,-56.419846
-0.777588,-0.839355,0.717529,-112.702293,82.381676,-51.534351
-1.038818,-0.436279,1.984314,-87.099236,85.786263,-51.496181
-1.039063,0.141602,1.984314,-53.824429,75.679390,-55.061069
-0.840088,0.625000,1.984314,-26.435114,60.824429,-62.526718
-0.506104,1.006592,1.984314,-15.480916,36.503819,-54.740459
0.014160,1.208252,1.984314,-4.374046,0.603053,-40.755726
0.583008,1.256592,1.774170,7.145038,-33.114502,-31.335878
1.100830,1.038574,0.139404,2.358779,-80.160309,-20.160305
1.480225,0.603271,-1.447998,-6.145038,-99.572517,-5.221374
1.570313,0.074219,-2.000000,-24.190840,-94.801529,1.687023
1.312988,-0.591553,-2.000000,-42.587788,-72.167938,8.152672
0.810303,-1.074951,-2.000000,-56.259541,-34.435116,18.206106
0.201416,-1.263916,-1.457764,-56.145039,3.442748,30.030535
-0.331299,-1.191895,0.121338,-37.259541,39.267174,42.679390
-0.727295,-0.843994,1.769287,-11.755725,70.000000,51.656490
-0.930664,-0.281250,1.984314,22.458015,86.748093,52.954197
-0.988037,0.316895,1.984314,23.625954,88.702293,65.946564
-0.807617,0.810547,1.984314,30.145039,78.801529,71.519081
-0.528809,1.005371,1.984314,31.000000,38.885498,82.091606
-0.086182,0.948730,1.984314,47.083969,-22.175573,101.969467
0.383057,0.759766,0.818848,40.236641,-91.435112,118.564888
0.812012,0.495117,-0.788086,54.633587,-168.068695,133.137405
1.180908,0.226562,-2.000000,81.534348,-227.328247,135.648849
1.355469,0.158447,-2.000000,123.290077,-242.145035,118.503815
1.231201,0.212402,-2.000000,150.312973,-220.068695,83.427483
0.709229,0.143555,-2.000000,111.450378,-199.114502,67.648857
-0.027588,-0.171875,-2.000000,52.343510,-220.625961,77.870232
-0.555420,-0.471680,-2.000000,12.480916,-250.137405,122.679390
-0.712646,-0.476074,0.030273,-41.824429,-250.137405,183.083969
-0.059570,-0.143066,1.984314,36.022900,-250.137405,148.213745
0.921387,0.239258,1.984314,-28.824427,-250.137405,148.381683
1.984314,0.487061,1.984314,-136.694656,-250.137405,162.748093
1.984314,0.443359,1.984314,-157.061066,-250.137405,162.732819
1.984314,0.608643,1.984314,-125.076332,-0.007634,-0.007634
1.984314,1.052979,1.984314,39.183205,142.312973,50.465649
1.984314,1.978027,1.984314,91.908394,248.175568,-39.770992
0.562256,0.836914,1.984314,118.633591,248.175568,-66.839691
-0.076904,1.301025,1.984314,99.740456,248.175568,-71.641220
-0.430664,1.545898,1.984314,81.045799,211.961838,-61.358780
-0.301514,1.787842,1.984314,71.335876,51.793892,-60.946564
0.431641,1.946777,1.984314,47.572517,-111.725189,-76.122139
1.521484,1.908447,1.083496,12.679389,-186.022903,-97.877861
1.984314,1.593994,-0.354492,-31.778625,-155.152664,-103.221375
1.984314,1.055420,-1.534180,-65.549622,-51.129772,-88.587784
1.984314,0.427490,-2.000000,-75.809158,80.740456,-68.351143
1.984314,-0.190430,-2.000000,-64.557251,179.671753,-55.030533
1.606201,-0.628174,-2.000000,-38.908398,206.641220,-56.396946
0.984375,-0.758789,-1.923096,-10.671756,217.954193,-82.824425
0.344238,-0.712158,-0.787598,-2.893130,221.503815,-94.839691
-0.143311,-0.566895,0.680908,0.793893,228.083969,-82.748093
-0.490234,-0.202393,1.984314,-6.267176,225.740463,-84.480919
-0.788574,0.121582,1.984314,-17.900763,186.770996,-88.190842
-0.823242,0.555664,1.984314,-24.320610,144.000000,-75.572517
-0.536865,1.029541,1.984314,-17.870230,94.290077,-72.641220
-0.114258,1.213135,1.984314,-16.297710,36.709923,-73.702293
0.470947,1.340332,1.984314,-19.977098,0.045802,-53.633587
1.036133,1.297363,0.650391,-16.770992,-12.061069,-55.717556
1.370117,0.952881,-1.025879,-31.809160,-20.351145,-59.526718
1.468750,0.452881,-2.000000,-48.183205,-8.816793,-54.580154
1.333984,-0.094238,-2.000000,-61.259541,15.083969,-49.763359
0.977295,-0.627197,-2.000000,-74.328247,42.045803,-40.648853
0.476318,-0.953613,-2.000000,-76.717560,66.312981,-33.152672
-0.040527,-1.042236,-1.208008,-71.343513,90.320610,-24.541985
-0.542969,-0.958496,0.360107,-55.022900,102.992363,-16.488550
-0.831543,-0.596680,1.984314,-22.290077,108.801529,-16.641222
-1.052734,-0.109619,1.984314,0.015267,92.465652,-22.106871
-0.983887,0.437744,1.984314,30.603054,83.419846,-25.061069
-0.720459,1.007568,1.984314,51.610687,36.946564,-35.465649
-0.197510,1.435303,1.984314,65.312981,-5.374046,-23.000000
0.444824,1.589844,1.984314,65.916031,-49.679390,-22.832062
1.020996,1.455811,0.731201,41.541985,-77.839691,-21.022902
1.408936,1.107666,-0.968262,9.496183,-87.007637,-20.664122
1.542725,0.516602,-2.000000,-25.992367,-76.893127,-9.236641
1.425781,-0.103271,-2.000000,-53.473282,-43.702290,2.824427
1.015381,-0.701416,-2.000000,-68.198471,-2.251908,13.618320
0.412109,-1.012695,-1.974365,-69.206108,44.618320,24.755726
-0.227539,-1.078857,-0.617187,-66.106873,68.022903,37.267174
-0.733643,-0.883057,1.069336,-48.656490,93.633591,47.778625
-1.072998,-0.452393,1.984314,-23.923664,94.587784,51.366413
-1.120850,0.133057,1.984314,9.893129,71.961830,52.816795
-0.857910,0.777588,1.984314,38.847328,32.244274,48.580154
-0.461182,1.043213,1.984314,55.885498,-16.694656,46.496181
0.038818,1.068604,1.984314,65.007637,-64.038170,54.229008
0.513916,0.999756,1.238037,67.061066,-110.893127,69.381676
0.993652,0.898682,-0.319580,82.656487,-149.305344,75.442749
1.266113,0.717285,-2.000000,75.160309,-183.671753,61.366413
1.263184,0.306641,-2.000000,53.366413,-202.870224,51.786259
1.000977,-0.142578,-2.000000,7.938931,-199.511444,55.725189
0.461670,-0.574463,-2.000000,-41.038166,-181.145035,95.786263
-0.166260,-0.919189,-2.000000,-96.755722,-162.480911,165.206100
-0.594482,-1.081299,-0.402832,-53.984734,-130.725189,168.702286
-0.830566,-0.870850,1.458252,-9.709924,-143.183212,141.251907
-0.613281,-0.084473,1.984314,47.244274,-178.557251,117.152672
0.117676,0.856445,1.984314,64.175575,-211.671753,102.206108
1.108398,1.340576,1.984314,-3.167939,-245.648849,100.053436
1.984314,1.475586,1.984314,-56.000000,-250.137405,110.427483
1.984314,1.246338,1.984314,-62.694656,-250.137405,90.000000
1.984314,1.135010,1.984314,-2.488550,-136.030533,48.824429
1.984314,1.345703,1.014893,73.145035,39.419846,8.450381
1.984314,1.434570,-1.005371,110.312981,118.610687,-21.839695
1.984314,1.086426,-2.000000,80.396950,73.694656,-46.236641
1.984314,0.382813,-2.000000,-1.946565,62.694656,-82.229004
1.422607,-0.395020,-2.000000,-32.259541,-1.885496,-49.854961
0.960205,-0.834229,-2.000000,-50.083969,-33.450382,-30.198473
0.688965,-0.999268,-1.174316,-47.290077,-44.015266,-21.305344
0.539795,-0.891602,0.406250,-26.351145,-9.274809,-14.145039
0.412842,-0.574951,1.976563,2.389313,48.396946,-19.625954
0.307373,-0.104980,1.984314,36.832062,131.343506,-22.236641
0.217041,0.552246,1.984314,79.877861,202.740463,-27.916031
0.266357,1.275146,1.984314,110.603050,236.770996,-40.175571
0.457031,1.742676,1.984314,124.343513,240.427475,-57.282444
0.702148,1.869873,1.984314,135.160309,187.885498,-70.450378
1.090576,1.857910,1.619629,129.290070,127.755722,-84.045799
1.467529,1.697266,0.140137,102.603050,76.717560,-99.557251
1.725342,1.268799,-1.523193,61.977100,27.656488,-111.137405
1.750244,0.630371,-2.000000,19.000000,-8.183207,-114.404579
1.003174,1.646729,1.386475,-12.412213,-16.580153,-111.709923
1.411621,1.301514,-0.355713,-44.251907,-10.732824,-114.641220
1.614502,0.757324,-1.940186,-73.877861,17.534351,-93.832062
1.548828,0.166992,-2.000000,-87.396950,61.740459,-58.435116
1.320068,-0.345947,-2.000000,-86.595421,107.648857,-32.412212
0.859619,-0.718750,-2.000000,-82.022903,137.458008,-30.885496
0.251953,-0.900635,-1.571533,-65.465652,153.519089,-30.305344
-0.309570,-0.895264,-0.047119,-34.923664,148.984726,-31.969465
-0.699219,-0.603271,1.697754,2.091603,136.641220,-40.656490
-0.954102,-0.026855,1.984314,36.152672,114.038170,-46.931297
-1.031006,0.555664,1.984314,44.816795,95.312981,-49.511452
-0.843018,1.103760,1.984314,50.122139,45.969467,-55.213741
-0.444092,1.433594,1.984314,41.679390,-16.091602,-55.297710
0.167969,1.549072,1.984314,21.977098,-70.549622,-51.229008
0.826660,1.448242,0.757080,3.206107,-98.824425,-50.099236
1.345215,1.118164,-0.842285,-5.916030,-99.251907,-51.748093
1.611816,0.630859,-2.000000,-6.389313,-63.961834,-52.099236
1.487549,0.049316,-2.000000,-12.725191,-10.175572,-48.145039
1.082275,-0.498779,-2.000000,-6.793893,43.251907,-33.381680
0.523437,-0.813232,-2.000000,0.847328,79.129768,-17.900763
-0.066162,-0.913086,-1.081787,-3.519084,86.328247,-13.931297
-0.569824,-0.780029,0.527588,-8.916031,101.786263,1.587786
-0.912354,-0.484131,1.984314,-3.114504,96.595421,3.870229
-1.026123,0.146484,1.984314,-3.022901,83.519081,11.374045
-0.913086,0.770752,1.984314,5.229008,50.465649,3.221374
-0.624023,1.193115,1.984314,12.748092,7.954198,-1.076336
-0.167969,1.385742,1.984314,23.816793,-37.625954,6.335878
0.411133,1.441406,1.984314,26.183207,-77.152672,10.450381
0.899414,1.244385,0.352783,7.419847,-102.389313,14.809160
1.213379,0.788818,-1.368896,-22.656488,-107.687019,23.938931
1.288574,0.155029,-2.000000,-30.656488,-108.091606,35.687023
1.127930,-0.510010,-2.000000,-44.900764,-96.076332,65.374046
0.853027,-1.082764,-2.000000,-38.312977,-73.488548,92.778625
0.412598,-1.220703,-2.000000,-33.290077,-47.961834,104.412216
-0.199707,-1.174072,-2.000000,-22.335878,-21.396946,111.900764
-0.838135,-1.077393,-1.042725,-2.946565,-14.931297,127.007637
-1.360840,-0.630127,0.507568,28.633587,-20.854961,131.816788
-1.880371,-0.109375,1.883301,2.419847,-52.778625,133.419846
-2.000000,0.102783,1.984314,-51.916031,-162.122131,152.267181
-1.487305,0.508057,1.984314,-7.793893,-250.137405,174.442749
-0.094238,1.334229,1.984314,110.603050,-250.137405,116.000000
1.705322,1.984314,1.984314,215.992371,-250.137405,96.977097
1.984314,1.984314,1.984314,119.251907,-250.137405,120.549622
1.984314,1.984314,1.821777,-116.267174,-250.137405,151.961838
1.984314,0.879639,0.233887,-244.114502,-250.137405,94.900764
1.984314,-0.260986,-0.903809,-121.312981,4.137404,11.656488
1.984314,0.037354,-2.000000,73.984734,228.099243,-6.511450
1.984314,0.729004,-2.000000,136.167938,248.175568,-47.893131
1.984314,0.240723,-2.000000,75.427483,248.175568,-112.045799
0.160889,-0.269775,-2.000000,10.717557,248.175568,-65.427483
-1.315430,-0.549561,-2.000000,-32.824429,196.435120,-1.885496
-1.614014,-0.459961,-0.527100,-65.122139,-33.770992,28.412214
-1.992249,-0.000061,-0.000061,-0.007634,-0.007634,-0.007634
0.097168,-0.014160,1.984314,-87.335876,-250.137405,-30.000000
0.827148,0.344482,1.984314,-63.633587,-195.809158,-24.687023
1.289795,0.876709,1.984314,-3.221374,-27.877863,-7.366412
1.520996,1.319336,1.984314,58.717556,140.702286,-4.656488
1.590576,1.688721,1.984314,104.183205,211.618317,-20.977098
1.656250,1.868896,1.984314,127.236641,171.702286,-50.465649
1.846924,1.834717,0.717285,129.633591,88.679390,-86.076332
1.984314,1.550293,-0.857666,116.809158,35.114502,-113.877861
1.984314,0.969238,-2.000000,76.824425,8.328244,-124.007637
1.984314,0.343994,-2.000000,32.366413,31.022902,-121.343513
1.724609,-0.267822,-2.000000,-4.267176,75.099236,-111.374046
1.129639,-0.678955,-2.000000,-24.022902,103.809158,-124.167938
0.385254,-0.876221,-1.696777,-45.442749,133.969467,-103.885498
-0.180420,-0.735596,-0.302734,-54.412212,182.839691,-62.358780
-0.634521,-0.359375,1.235596,-55.870228,215.923660,-40.557251
-0.908447,0.133545,1.984314,-51.404579,229.679382,-31.977098
-0.986328,0.593262,1.984314,-40.503819,223.419846,-39.694656
-0.832275,1.017090,1.984314,-31.824427,204.435120,-42.129772
-0.432129,1.299561,1.984314,-4.221374,169.282440,-39.206108
0.130615,1.468262,1.984314,16.351145,124.244278,-40.152672
